Unnamed: 0,net_acc_mean,net_acc_std,net_acc_min,net_acc_max,ACC_x_mean,ACC_x_std,ACC_x_min,ACC_x_max,ACC_y_mean,ACC_y_std,ACC_y_min,ACC_y_max,ACC_z_mean,ACC_z_std,ACC_z_min,ACC_z_max,BVP_mean,BVP_std,BVP_min,BVP_max,EDA_mean,EDA_std,EDA_min,EDA_max,EDA_phasic_mean,EDA_phasic_std,EDA_phasic_min,EDA_phasic_max,EDA_smna_mean,EDA_smna_std,EDA_smna_min,EDA_smna_max,EDA_tonic_mean,EDA_tonic_std,EDA_tonic_min,EDA_tonic_max,Resp_mean,Resp_std,Resp_min,Resp_max,TEMP_mean,TEMP_std,TEMP_min,TEMP_max,BVP_peak_freq,TEMP_slope,subject,label
0,0.029732629678152087,0.0038415308215298577,0.01032080286733762,0.05435622843464479,0.02973261560222373,0.0038415290028843093,0.010320797981295449,0.054356202701489366,2.0457621272404325e-05,2.643176318537126e-06,7.101258064714148e-06,3.739995914082785e-05,2.0457621272404325e-05,2.643176318537126e-06,7.101258064714148e-06,3.739995914082785e-05,0.3422937853107343,56.953688920307954,-309.08,170.7,1.517755704032229,0.05744499698178088,1.4373443083267283,1.6783994645961535,2.1461621617393516,1.142181759564781,0.6210068087251048,4.319986715502379,1.1066017780736157,1.093790984590172,2.868633788999375e-05,5.408451786567724,1.2742242266991115,0.9741433143114536,-0.4115342811222841,2.5547503021729274,-0.044929007339872026,2.964953298974381,-8.80584716796875,4.02679443359375,35.823090909090894,0.010595492570423052,35.81,35.84,0.08135593220338984,0.0001558441558441484,2,0
1,0.030140480409862905,0.013522514181431095,0.0,0.08738279761012517,0.029287404708912917,0.015282468428061238,-0.02408186195635605,0.0873827562416348,2.015129249314209e-05,1.0515151286769726e-05,-1.656960215099968e-05,6.012398494791312e-05,2.015129249314209e-05,1.0515151286769726e-05,-1.656960215099968e-05,6.012398494791312e-05,-0.7062330316742059,141.21439449831203,-358.13,554.77,1.2781812728045852,0.0896426133980765,1.1092986624802572,1.4308800291735615,1.5024158394211429,0.9258146361542748,0.36797708316668265,3.3409625230052002,1.4621499271750602,2.523380008581649,5.2296570629550836e-08,11.71259626503334,1.1901040178420144,1.018561814125571,-0.5991635447640467,2.551851970397221,0.3412769938092138,2.893127769173536,-6.04705810546875,6.50482177734375,35.811090909090865,0.01170434686504032,35.79,35.83,0.13574660633484165,-0.0001991341991342272,2,0
2,0.028281801884432894,0.016410653130627468,0.0,0.07155756654687416,0.022939257775621388,0.0233014869564547,-0.03784292593141665,0.07155753267031513,1.5783429689536608e-05,1.6032662636090663e-05,-2.603794623728521e-05,4.9235389248684756e-05,1.5783429689536608e-05,1.6032662636090663e-05,-2.603794623728521e-05,4.9235389248684756e-05,0.0591402714932148,133.2096062761176,-392.28,438.16,1.2162374473743371,0.11810287648628673,1.014137872636249,1.4857995814446938,3.2256031493717305,0.5293725586893708,2.3010282280371985,4.459366787884756,2.4165045676151333,3.7678638313639294,3.096901934895868e-08,17.41882122027924,-0.7198372266557451,0.4875550764623773,-1.213172941862477,0.4465242370420128,-0.3329745148591795,3.5733048727240737,-8.16802978515625,6.74285888671875,35.8212727272727,0.0197304144963634,35.79,35.87,0.14479638009049775,-0.0005367965367965231,2,0
3,0.015689799713408132,0.01238988657519791,0.0006880535244891746,0.04678763966526387,0.011763841680942636,0.01616449055396666,-0.008256638385036359,0.046787617515206034,8.094148898196802e-06,1.1122029431869896e-05,-5.6810064517713185e-06,3.2192369893370815e-05,8.094148898196802e-06,1.1122029431869896e-05,-5.6810064517713185e-06,3.2192369893370815e-05,-1.7194343891402724,102.23984908024653,-345.19,359.57,1.2041351174322326,0.054426266749646734,1.101072325619433,1.2977074582994428,1.0126260346277218,0.5152727351267413,0.5391497246188794,2.241269540571701,0.5361648571611763,0.6581262167619013,3.3099901486366434e-08,2.78886166922754,1.4554702698397188,0.3814895944888058,0.5105293775718543,1.871490021412816,0.4080258882962741,1.7675262120303818,-3.5003662109375,3.65447998046875,35.7742857142857,0.017202277969703066,35.75,35.81,0.11764705882352942,-0.0006889952153109765,2,0
4,0.014053726740018644,0.0006865233159833803,0.011008856391826794,0.015825231063251018,0.01405372008674742,0.000686522990971662,0.01100885118004848,0.015825223571319692,9.669707060066246e-06,4.7236433995555e-07,7.574675269028425e-06,1.088859569922836e-05,9.669707060066246e-06,4.7236433995555e-07,7.574675269028425e-06,1.088859569922836e-05,2.229411764705882,29.959636958962,-81.86,185.58,1.0986440041777443,0.04978072787514394,1.0113297761100053,1.1909666436032378,0.17201857759346945,0.15711055226935855,0.006950363560282765,0.5443458456701337,0.05831472655972916,0.1267009412006469,9.059071581773993e-08,0.6655971836494476,1.9754851176067485,0.05208352062416796,1.8634639150622123,2.037179172222012,0.056338869863428676,1.6657015669610025,-2.7862548828125,3.26080322265625,35.73472727272728,0.017040544747432548,35.71,35.75,0.13574660633484165,-0.0008629148629148688,2,0
5,0.027609118400269875,0.012288155820879484,0.0027522140979566985,0.05435622843464479,0.027609105329647585,0.012288150003459251,0.00275221279501212,0.054356202701489366,1.8996533236773312e-05,8.454900916637174e-06,1.8936688172571063e-06,3.739995914082785e-05,1.8996533236773312e-05,8.454900916637174e-06,1.8936688172571063e-06,3.739995914082785e-05,-0.3485875706214657,51.55677215633446,-240.61,209.89,0.9233103252262516,0.05556613783055993,0.8322161167473114,1.0081733131064503,0.13363706491435884,0.0883619412011308,0.01996279590363714,0.3692976511012663,0.15186780108273018,0.3154587336210313,4.7256021318275985e-08,1.3008099949767329,1.4799060555965948,0.21596812469145465,1.137304257172579,1.8511922154818503,-0.10007193564382433,1.730745379727154,-2.9144287109375,3.04718017578125,35.69109090909092,0.016806138193879272,35.66,35.71,0.11751412429378533,-0.00011255411255412195,2,0
6,0.03421276099824224,0.004014986041199265,0.013761070489783492,0.040595157944861314,0.03421274480134428,0.004014984140437155,0.0137610639750606,0.04059513872642877,2.354018849868588e-05,2.7625226807704674e-06,9.468344086285533e-06,2.793161505454232e-05,2.354018849868588e-05,2.7625226807704674e-06,9.468344086285533e-06,2.793161505454232e-05,-2.7315723981900426,53.586317542178456,-289.26,145.36,0.8132511131463345,0.026156503810316745,0.7606944707577967,0.8768194179289382,0.2900324195940326,0.044416913589882784,0.18111187762542494,0.36138758353877976,0.201859979609238,0.24242680380905826,2.7872847141452443e-08,1.105898008119306,0.9917919348833504,0.05239831739951665,0.9459457413226706,1.1276021627961088,0.2019934263773651,1.6744719232013183,-2.81829833984375,3.73077392578125,35.69785714285717,0.02076348836249893,35.66,35.73,0.16289592760180996,-0.0006561859193438312,2,0
7,0.03468443569941937,0.002014496511590101,0.02889824802854533,0.036466836797926255,0.034684419279222306,0.0020144955578934613,0.028898234347627262,0.03646681953391059,2.3864725631960085e-05,1.3860801124823702e-06,1.9883522581199616e-05,2.5091111828656657e-05,2.3864725631960085e-05,1.3860801124823702e-06,1.9883522581199616e-05,2.5091111828656657e-05,2.9463800904977457,23.9718700063666,-84.39,109.88,0.7364317122194419,0.02587667830624269,0.6939961352625407,0.7828658617100936,0.0631126578394897,0.06433114608199662,0.0027887371005067443,0.21422576262841025,0.018056572622483925,0.06004511556580451,1.4432051016755046e-07,0.3732589896895786,0.9839915457646488,0.02828434065699885,0.9124406813491884,1.013621883233599,-0.006879156272619171,1.2547465457256557,-2.12860107421875,2.94952392578125,35.70381818181821,0.017631676978037792,35.66,35.73,0.13574660633484165,0.0006493506493506554,2,0
8,0.03117256069659669,0.00520043624298764,0.013761070489783492,0.03853099737139378,0.03117254593898064,0.005200433781013397,0.0137610639750606,0.03853097913016968,2.1448369946591345e-05,3.5781750979295823e-06,9.468344086285533e-06,2.651136344159949e-05,2.1448369946591345e-05,3.5781750979295823e-06,9.468344086285533e-06,2.651136344159949e-05,-0.10069004524886856,58.73595158192506,-197.37,194.12,0.6871052238193748,0.0147638473854161,0.6578763063679306,0.7181063761815458,0.0607613269470191,0.04158571893775654,0.002305967049352732,0.1327805343565842,0.05170263499298039,0.1582525961462976,5.174644446270804e-08,0.997036505624208,0.8366105554647437,0.03020977380981492,0.7938626384676172,0.90783251850008,0.06903738211776833,1.6318440836608563,-3.24249267578125,2.91290283203125,35.7329090909091,0.010387532259699172,35.71,35.75,0.15384615384615385,-2.8860028860022087e-05,2,0
9,0.026567894801938264,0.000837490673767786,0.02339381983263193,0.027522140979566984,0.026567882224248683,0.0008374902772855714,0.023393808757603017,0.0275221279501212,1.8280116348488225e-05,5.762378642108998e-07,1.6096184946685408e-05,1.8936688172571066e-05,1.8280116348488225e-05,5.762378642108998e-07,1.6096184946685408e-05,1.8936688172571066e-05,-0.046549773755656776,16.40234839909947,-39.47,27.89,0.6278827388443258,0.020355429233668024,0.594666882768196,0.6630915921073256,0.00926754359711119,0.00914946439146322,0.0011442516256320798,0.03009363914026832,0.001729094005593962,0.0060794918275836225,1.041499094189824e-07,0.033519022785009116,0.7079126390310823,0.0534615274454136,0.6156849313922336,0.7917547819539308,0.05605297465319965,1.358865963580173,-2.47955322265625,2.48565673828125,35.75654545454545,0.01909004327041113,35.73,35.79,0.14479638009049775,0.0009841269841270517,2,0
10,0.02755794466975539,0.0003269514377110067,0.02683408745507781,0.028210194504056162,0.02755793162335942,0.0003269512829266808,0.02683407475136817,0.02821018114887423,1.8961323004469685e-05,2.2495987605410968e-07,1.8463270968256787e-05,1.941010537688534e-05,1.8961323004469685e-05,2.2495987605410968e-07,1.8463270968256787e-05,1.941010537688534e-05,-0.3717853107344632,17.354047020770288,-38.91,30.83,0.5641131646870223,0.016925550944442327,0.5360810822521598,0.5933789751944026,0.0008338041578098027,0.0015671712848173837,1.4827831753488775e-05,0.005466126115876121,0.0010955777384353113,0.005545157259764311,1.0150311069608008e-07,0.03166246460082783,0.5229583962258931,0.0521004373462292,0.4349902963728801,0.6123476276939752,0.0037415667855250226,1.6262101694842783,-2.73895263671875,2.75726318359375,35.789999999999964,0.015118578920369441,35.75,35.81,0.1536723163841808,0.0004155844155844145,2,0
11,0.02825845165170134,0.012363619618573893,0.0,0.06605313835096077,0.028211737830319418,0.012469808643320366,-0.00275221279501212,0.06605310708029087,1.9411176456533082e-05,8.579891724874741e-06,-1.8936688172571063e-06,4.544805161417056e-05,1.9411176456533082e-05,8.579891724874741e-06,-1.8936688172571063e-06,4.544805161417056e-05,0.9004751131221725,99.14369300386156,-367.11,363.29,0.5163759545834258,0.019529372924440985,0.4864942002203283,0.5524220577570753,0.06628854262016087,0.05714999912094777,0.003007755608563421,0.19528273424588305,0.07799908611684132,0.14962526778355387,3.2976926522820804e-08,0.6012619534803973,0.3124411158600957,0.09098983374451017,0.1122697804933866,0.43185353389336334,0.10417030609796686,1.7226571496205851,-3.192138671875,3.45001220703125,35.82199999999995,0.01644826600421633,35.79,35.84,0.0904977375565611,0.00028860028860027787,2,0
12,0.03057168137430517,0.01239077644891375,0.0,0.07499783416932004,0.02933566183371235,0.015085654030621972,-0.03096239394388635,0.07499779866408028,2.0184495962222932e-05,1.0379732511050987e-05,-2.1303774194142445e-05,5.160247527025615e-05,2.0184495962222932e-05,1.0379732511050987e-05,-2.1303774194142445e-05,5.160247527025615e-05,-0.8129864253393633,142.71711195156738,-670.2,361.86,0.5030424706957105,0.0240617527642637,0.4743745567389848,0.5689634790783594,0.4547529229590086,0.13567508021903854,0.1980252370099941,0.6698364603335911,0.4072549648203945,0.7824375458493846,3.2841318997611786e-08,3.622407094081217,-0.1165310009541516,0.09238778659425688,-0.20270020156079727,0.10072664317396857,0.018533015002164976,2.739002631992293,-6.646728515625,5.21697998046875,35.8403636363636,0.01736910908518895,35.81,35.87,0.11764705882352942,0.00039754689754689686,2,0
13,0.035873740886545234,0.003667887115383432,0.018577445161207715,0.04816374671424223,0.03587372390331131,0.003667885378943793,0.018577436366331808,0.0481637239127121,2.468303048285637e-05,2.5237002676417527e-06,1.2782264516485464e-05,3.313920430199936e-05,2.468303048285637e-05,2.5237002676417527e-06,1.2782264516485464e-05,3.313920430199936e-05,2.264400452488688,70.11055279738254,-216.45,281.88,0.5026963424119161,0.01059508432220209,0.4849416578124228,0.5363365022837704,0.2938661911940378,0.11134759112009764,0.1309373334915774,0.5418627105006903,0.1555914304557893,0.2451443161276539,3.650495550289178e-08,1.129544381847877,0.04314550000355511,0.10984335596541343,-0.14533519990835952,0.21678161382518474,0.07415478015781718,1.458877635485997,-2.67791748046875,3.56292724609375,35.85381818181815,0.018039442552452625,35.83,35.89,0.16289592760180996,3.607503607506991e-05,2,0
14,0.02939681502936028,0.003795524327107872,0.004816374671424223,0.04128321146935048,0.029396801112412295,0.003795522530242621,0.00481637239127121,0.0412831919251818,2.0226563038501787e-05,2.6115214178726366e-06,3.313920430199936e-06,2.8405032258856597e-05,2.0226563038501787e-05,2.6115214178726366e-06,3.313920430199936e-06,2.8405032258856597e-05,-1.7211751412429392,43.587075238935,-162.1,182.92,0.5029411934132438,0.009130603382512705,0.4856941953694086,0.5249936287828713,0.05249259031496158,0.03843869870381369,0.007154363703923386,0.12540568882171066,0.026938844497058655,0.09474963958434678,5.8767054333941366e-08,0.6383201574497097,0.28533218084533063,0.02373108517660763,0.22168506382022007,0.308248268934117,0.02115608777813502,1.4808166911870737,-2.716064453125,2.581787109375,35.82857142857141,0.0124539969815451,35.81,35.84,0.0903954802259887,-0.0006015037593985088,2,0
15,0.03724050784243112,0.0030247873014298985,0.02476992688161029,0.04472347909179635,0.0372404902121466,0.0030247858694445753,0.024769915155109082,0.04472345791894695,2.562343841359841e-05,2.0812135930143057e-06,1.7043019355313955e-05,3.077211828042797e-05,2.562343841359841e-05,2.0812135930143057e-06,1.7043019355313955e-05,3.077211828042797e-05,-0.4454524886877814,34.47972718877645,-182.86,122.19,0.5103925067726035,0.02216289586600944,0.4701519730405613,0.5517079848832236,0.09541317416802944,0.06907455950054267,0.0013878393348570868,0.210346202465805,0.0807739223508043,0.2281475746938891,4.984947258451777e-08,1.4828810907493841,0.2650374671369045,0.01982286731559296,0.24309615760484626,0.31263141090766,0.13642439784536242,1.514636027537001,-2.9449462890625,3.19366455078125,35.80018181818179,0.014708180666295975,35.77,35.83,0.15384615384615385,-0.000383838383838411,2,0
16,0.036639628520139585,0.0019398040221991109,0.027522140979566984,0.043347372042818,0.036639611174321435,0.0019398031038631747,0.0275221279501212,0.04334735152144089,2.521000166955915e-05,1.3346877305641126e-06,1.8936688172571066e-05,2.9825283871799426e-05,2.521000166955915e-05,1.3346877305641126e-06,1.8936688172571066e-05,2.9825283871799426e-05,0.4071945701357457,31.12219172383549,-120.43,139.13,0.5042786937297946,0.006384600785841964,0.4912246534881517,0.5179903104042501,0.011951924873527885,0.015467311950385485,0.0013983996994300345,0.0634146893150826,0.0010691167109185915,0.005869614966858582,9.451366600465859e-08,0.04036608783886092,0.3300877229207548,0.012514007420915912,0.30129007572812044,0.3442429172221761,-0.08339604304872493,1.4058159494564393,-2.777099609375,2.48870849609375,35.78563636363634,0.008260230321162387,35.77,35.79,0.15384615384615385,0.00017027417027413641,2,0
17,0.03735258895954247,0.00031816161865894397,0.036466836797926255,0.03853099737139378,0.0373525712761969,0.0003181614680358705,0.03646681953391059,0.03853097913016968,2.570055614823771e-05,2.189120158020411e-07,2.5091111828656657e-05,2.651136344159949e-05,2.570055614823771e-05,2.189120158020411e-07,2.5091111828656657e-05,2.651136344159949e-05,-0.3345475113122172,15.164907003778927,-36.79,23.79,0.4736084988450228,0.010259888336410946,0.4564315730515574,0.49065903579724296,0.0007779050063241313,0.0008079573723775756,1.421127555742128e-05,0.0025441562788971212,0.0004514605090524824,0.002031605627798584,1.2765333946493373e-07,0.012828911777521532,0.2478783108997589,0.03013870473799965,0.19728690234905802,0.2994128152507038,0.08883120761934844,1.2727385854314994,-2.12249755859375,2.39715576171875,35.78272727272725,0.012277776739005344,35.77,35.81,0.15384615384615385,0.00010101010101012297,2,0
18,0.03744598989046858,0.0011717516043649725,0.03371462269996956,0.043347372042818,0.0374459721629054,0.001171751049638002,0.03371460673889847,0.04334735152144089,2.5764820927103862e-05,8.062270578456469e-07,2.319744301139956e-05,2.9825283871799426e-05,2.5764820927103862e-05,8.062270578456469e-07,2.319744301139956e-05,2.9825283871799426e-05,-0.4394230769230769,17.91847051935887,-39.38,77.19,0.4383417588251971,0.010676874207164821,0.4211675506398002,0.4562918452557773,0.00014141429407326089,0.0005037495068506053,6.819167828716883e-07,0.002739229430237955,0.001384200822058743,0.007649227757196272,8.373381165764366e-08,0.05434436281470083,0.1416007546448146,0.032254133789245694,0.08766367867186686,0.19544212537246752,0.13053789919718325,1.4282745155569,-2.75421142578125,3.02886962890625,35.80035714285711,0.012530574852035644,35.79,35.83,0.15384615384615385,0.00046958304853046505,2,0
19,0.036645855248867994,0.0008861077469788137,0.03371462269996956,0.03990710442037213,0.03664583790010205,0.0008861073274804598,0.03371460673889847,0.03990708552767574,2.5214285988150133e-05,6.096889811114283e-07,2.319744301139956e-05,2.745819785022804e-05,2.5214285988150133e-05,6.096889811114283e-07,2.319744301139956e-05,2.745819785022804e-05,0.5736271186440678,15.779009014766359,-35.91,37.81,0.4092402296063027,0.00681921863890546,0.3955345289647858,0.42228874000340416,0.005341887135695141,0.005089769077647139,0.00017217346642826647,0.016737013785695438,0.003634364951021732,0.01721323902581021,1.0020943541633187e-07,0.11808383076499945,0.04771273872069128,0.02181208214371749,0.008597810783057658,0.08594389574140726,0.09581194052158737,1.5312967319504298,-2.65045166015625,2.76641845703125,35.826727272727226,0.012799793386762343,35.81,35.84,0.1536723163841808,0.0006305916305916845,2,0
20,0.03570250584651415,0.00265224337963978,0.030962408602012863,0.05229206786117727,0.03570248894434557,0.002652242124023025,0.03096239394388635,0.05229204310523028,2.456521172160163e-05,1.8248836773015737e-06,2.1303774194142445e-05,3.5979707527885024e-05,2.456521172160163e-05,1.8248836773015737e-06,2.1303774194142445e-05,3.5979707527885024e-05,1.8263348416289595,24.238246349810986,-87.45,91.48,0.3802975263759373,0.008419268006159945,0.3680424807666365,0.39550396767918455,0.004010543062550208,0.006792220035537605,6.996313584973643e-05,0.033058063158189065,0.007353113931055491,0.03553402954047672,9.472712771303736e-08,0.25494979577362925,-0.0387624725417182,0.025521564809783168,-0.07843635376163538,0.006874694171344621,0.03799471610113354,1.5444356830904358,-3.240966796875,3.20587158203125,35.85181818181817,0.020457575533141082,35.83,35.89,0.14479638009049775,0.0006507936507936773,2,0
21,0.02936058263662965,0.017241373973835558,0.0,0.07018145949789581,0.02905234581069642,0.017755812977481918,-0.006192478788777271,0.07018142627280906,1.998955946632885e-05,1.2216943915617014e-05,-4.260754838828489e-06,4.8288554840056206e-05,1.998955946632885e-05,1.2216943915617014e-05,-4.260754838828489e-06,4.8288554840056206e-05,-2.5935407239818984,106.67836195238176,-596.97,368.75,0.372034823977596,0.007024636983170642,0.3614713664628581,0.38649950861979865,0.045299108535567234,0.023400592313422484,0.02178596007704712,0.11040037121694243,0.04598397308049573,0.10289740217927898,3.4712853480556305e-08,0.5158293784750486,-0.10510050700235272,0.01389115446851595,-0.1281850557880469,-0.07959943766589156,-0.0901742208806451,1.393401478568434,-2.606201171875,3.00750732421875,35.89400000000004,0.01169304377513611,35.87,35.91,0.07239819004524888,0.0004458874458874131,2,0
22,0.029538044405389333,0.014421181451269588,0.0,0.05435622843464479,0.02934188855949285,0.014816176783690313,-0.006192478788777271,0.054356202701489366,2.0188780280814042e-05,1.019431782930849e-05,-4.260754838828489e-06,3.739995914082785e-05,2.0188780280814042e-05,1.019431782930849e-05,-4.260754838828489e-06,3.739995914082785e-05,-0.2061312217194549,87.75164336660221,-302.52,276.54,0.3610542545830751,0.01457584483962859,0.3443925650153625,0.3892098000433985,0.05877722011170485,0.0314782997931829,0.0184670245095038,0.12320395872617824,0.035694729477311324,0.08275311963013911,4.327437408413459e-08,0.3328626308930162,-0.15195979827581182,0.01189223696573105,-0.1672577516454532,-0.12909309025263516,0.1846174645561932,1.5160158278655622,-2.471923828125,2.88238525390625,35.89428571428574,0.011157499537008392,35.87,35.91,0.14479638009049775,-0.00019685577580313607,2,0
23,0.03576788649816249,0.009579949257465373,0.0,0.0626128707285149,0.035630881597869105,0.010077505180352244,-0.008944691583789391,0.06261284108652572,2.451594205780423e-05,6.933859674791626e-06,-6.1544236560855945e-06,4.308096559259917e-05,2.451594205780423e-05,6.933859674791626e-06,-6.1544236560855945e-06,4.308096559259917e-05,-0.10737556561085852,92.70357402497358,-449.14,338.57,0.3456899030449346,0.006679338864070034,0.33800492133647986,0.3606142616640011,0.02788323122430391,0.017204446223075986,0.007048824063579252,0.06471014194615388,0.01624258173114763,0.07923997355473977,4.094252747943728e-08,0.5722274379884067,-0.16752493048710654,0.0007821300920225247,-0.16984153391509102,-0.16640485426123286,0.0611683215686718,1.4137166333695297,-2.51007080078125,2.81829833984375,35.88272727272726,0.01227777673900741,35.87,35.91,0.08144796380090498,-0.00026839826839832775,2,0
24,0.035087623412494134,0.009476723106552495,0.0006880535244891746,0.06123676367953655,0.03487637602257185,0.010226765978945365,-0.006880531987530299,0.061236734689019676,2.399680208324412e-05,7.036559044712027e-06,-4.7341720431427655e-06,4.2134131183970615e-05,2.399680208324412e-05,7.036559044712027e-06,-4.7341720431427655e-06,4.2134131183970615e-05,0.1612542372881406,86.5013092269412,-400.42,421.48,0.3317371984069392,0.010822175092828365,0.3121689345923872,0.3568084859483367,0.023416442129885515,0.024322543688725183,0.0023698396670571416,0.07924745154381617,0.01894175220219967,0.11172351905217832,4.831964695029002e-08,0.8351373018287732,-0.20572596986113967,0.026198689641159068,-0.25599191942198124,-0.1703482106389121,-0.000197086117260212,1.3974900381279516,-2.606201171875,2.79083251953125,35.86236363636359,0.019996693941624302,35.83,35.89,0.04519774011299435,-0.0006378066378066544,2,0
25,0.035223047734426687,0.009212777764205649,0.0,0.060548710155047376,0.03509849654363039,0.009676396599301026,-0.006880531987530299,0.06054868149026664,2.414963281826688e-05,6.657875632552059e-06,-4.7341720431427655e-06,4.166071397965634e-05,2.414963281826688e-05,6.657875632552059e-06,-4.7341720431427655e-06,4.166071397965634e-05,1.1515271493212649,84.58064892956632,-333.66,387.3,0.3033977358554073,0.011818739021799857,0.2868168646781455,0.3309266279493161,0.03492762454925557,0.024631703970185874,0.01209385358651932,0.09708551379343587,0.025961727218230958,0.09396901434130199,5.0018129860163185e-08,0.6369073733095509,-0.3034610341724976,0.021716120037234717,-0.3299840153000498,-0.2581434742737833,0.06912600609564012,1.5783821932296094,-2.87322998046875,3.22418212890625,35.82642857142853,0.011715156762040357,35.79,35.84,0.07239819004524888,-0.00033356117566641134,2,0
26,0.030766266647067976,0.013643823008102013,0.0006880535244891746,0.05986065663055819,0.030675964557980107,0.013845620087882263,-0.006192478788777271,0.05986062829151361,2.1106695538952772e-05,9.526523190186592e-06,-4.260754838828489e-06,4.1187296775342064e-05,2.1106695538952772e-05,9.526523190186592e-06,-4.260754838828489e-06,4.1187296775342064e-05,2.376425339366518,90.53729054665537,-428.17,285.6,0.2883022460510741,0.010751342082470831,0.27444180983690425,0.3114652922928663,0.04672775744630108,0.03518386754478907,0.002265117807926844,0.10383133735330914,0.046567519884705234,0.1333290644950765,4.2224260754508685e-08,0.7705594344188754,-0.3609446891377526,0.022343869974972532,-0.4000072588483666,-0.3304906820708716,-0.035971676153254584,1.5608342514834312,-3.08990478515625,2.95257568359375,35.79872727272725,0.012512473115699042,35.79,35.83,0.15384615384615385,-0.0004675324675324883,2,0
27,0.040062772638582315,0.0016203767967334045,0.032338515650991204,0.05022790728770975,0.040062753672189984,0.0016203760296197019,0.032338500341392414,0.050227883508971186,2.7565305815004896e-05,1.1149049103625806e-06,2.2250608602771e-05,3.4559455914942184e-05,2.7565305815004896e-05,1.1149049103625806e-06,2.2250608602771e-05,3.4559455914942184e-05,-2.257963800904977,64.68447283327075,-309.35,211.04,0.2646505492636037,0.008730369114729138,0.254280746425988,0.2912683702029761,0.02344422816514272,0.023169804517983283,0.0009432021972993783,0.08971148934934094,0.006168656968513794,0.023760254706476427,7.377957977894312e-08,0.14901258692021235,-0.4094454092667637,0.0030301189214558357,-0.41633987683323137,-0.4010457203448773,0.12171452127534962,1.3631734024787174,-2.45513916015625,2.484130859375,35.79072727272725,0.014753063836436053,35.77,35.83,0.05429864253393665,-0.0006565656565656098,2,0
28,0.036138376857502784,0.009814624876282664,0.0,0.05366817491015562,0.036138359748985466,0.009814620229873696,0.0,0.05366814950273634,2.4865114022977146e-05,6.752980843710794e-06,0.0,3.692654193651357e-05,2.4865114022977146e-05,6.752980843710794e-06,0.0,3.692654193651357e-05,1.9011312217194551,32.48487026650483,-133.46,179.15,0.248942853916871,0.005070696337318986,0.2416610568165783,0.2617580893359861,0.008938729742335916,0.017862833697104192,4.3484398407621054e-05,0.06191591726100476,0.013584865597574129,0.08264773988018725,5.048273732377595e-08,0.6177148725378334,-0.4434952498965351,0.017016029430191017,-0.4733194470088987,-0.4170137280529369,0.11202532433265368,1.4773919254168622,-2.67181396484375,2.70843505859375,35.75654545454546,0.01209330119877565,35.75,35.79,0.14479638009049775,-0.0003189033189033288,2,0
29,0.0358208136923539,0.009423513262211958,0.0006880535244891746,0.05435622843464479,0.035739849299029056,0.009726004774607343,-0.006880531987530299,0.054356202701489366,2.4590917633148185e-05,6.692008696255831e-06,-4.7341720431427655e-06,3.739995914082785e-05,2.4590917633148185e-05,6.692008696255831e-06,-4.7341720431427655e-06,3.739995914082785e-05,1.8147118644067803,128.67192709271558,-727.64,595.6,0.23392123874585025,0.006745656132212205,0.22500894581806474,0.2526157612382411,0.02021453517611656,0.016317409651981897,0.006648497373053366,0.0635584278521064,0.016298314910229185,0.07460070737980078,6.094125248878868e-08,0.5455165435396683,-0.4993047191842688,0.013080655885818882,-0.5186684843723478,-0.4744170131519465,-0.08425546424636154,1.4783360296615735,-2.72369384765625,2.545166015625,35.75857142857142,0.009897433186109413,35.75,35.77,0.06327683615819209,0.00018591934381410966,2,0
30,0.03984328045090599,0.0020346836564517213,0.03027435507752368,0.05298012138566645,0.0398432615884248,0.002034682693198152,0.03027434074513332,0.05298009630398332,2.741428358466937e-05,1.399969935502423e-06,2.083035698982817e-05,3.64531247321993e-05,2.741428358466937e-05,1.399969935502423e-06,2.083035698982817e-05,3.64531247321993e-05,-3.8840497737556614,89.6593673936382,-335.37,351.65,0.21966918104561547,0.007052014315552167,0.20970065779282027,0.2424884578466826,0.010718106879866778,0.01411161879613684,0.0006196796486131987,0.056215258029004365,0.0007397143039083071,0.0038323210793638133,5.4785573411209036e-08,0.02721504308311921,-0.5330529207871991,0.009056908675001585,-0.5506578926129333,-0.5191664018555087,0.09214819161749688,1.359934677032938,-2.25067138671875,2.69775390625,35.76018181818181,0.01257572106603026,35.75,35.79,0.07239819004524888,0.0006147186147186585,2,0
31,0.039105413096589464,0.00033844504626072717,0.03715489032241543,0.03990710442037213,0.03910539458342743,0.00033844488603513066,0.037154872732663616,0.03990708552767574,2.6906591831626505e-05,2.3286808643807746e-07,2.556452903297093e-05,2.745819785022804e-05,2.6906591831626505e-05,2.3286808643807746e-07,2.556452903297093e-05,2.745819785022804e-05,-0.2713687782805431,12.664612982449329,-32.71,24.25,0.2037557807592278,0.003459822325209462,0.1980245217839082,0.2097322437628424,0.00024317602435592974,0.00019516752802753678,1.4904675891705082e-05,0.0006450987377167948,0.0001321100061184722,0.0009169592540687184,1.3755811583272652e-07,0.0068640256252739465,-0.5711440301308894,0.01066352250318473,-0.588027101775721,-0.5514710778437291,0.046697164343623976,1.3619477986941562,-2.4658203125,2.43682861328125,35.78127272727271,0.012512473115697179,35.75,35.79,0.15384615384615385,0.0004906204906204288,2,0
32,0.038601048069588494,0.0003621051556445622,0.036466836797926255,0.03990710442037213,0.03860102979520135,0.00036210498421787455,0.03646681953391059,0.03990708552767574,2.6559562025749217e-05,2.491474926755236e-07,2.5091111828656657e-05,2.745819785022804e-05,2.6559562025749217e-05,2.491474926755236e-07,2.5091111828656657e-05,2.745819785022804e-05,-0.2979072398190047,14.42388964759701,-34.68,37.36,0.19234163253426734,0.0033189753915114327,0.18633903725627293,0.19774625937860227,0.00025917191010967424,0.0003098047702053385,5.8348928203163274e-06,0.0009854058817127217,0.00019502136389087607,0.0014295860299817554,1.5592798714865984e-07,0.010700289340510129,-0.6060290795399534,0.010280734445386542,-0.6227237639451784,-0.5886179925834639,0.04174906297055953,1.3642710650462295,-2.459716796875,2.44903564453125,35.81254545454541,0.017706514653002766,35.77,35.84,0.15384615384615385,0.0008499278499277857,2,0
33,0.038576039249972174,0.00020957989573419205,0.037842943846904606,0.03921905089588296,0.03857602098742463,0.00020957979651553373,0.03784292593141665,0.03921903232892271,2.654235463556145e-05,1.4420204938652242e-07,2.603794623728521e-05,2.698478064591377e-05,2.654235463556145e-05,1.4420204938652242e-07,2.603794623728521e-05,2.698478064591377e-05,0.2435819209039541,13.126935561140693,-29.99,22.45,0.1827927572857336,0.002400540195839236,0.17731908115399148,0.1874929898777026,0.0018674226041046067,0.0020456436698015547,3.4805112749332893e-06,0.005367658868958833,0.0014959869805148053,0.005854480813331954,7.400679931135771e-08,0.03527805229213344,-0.6366594182347532,0.007967028404382995,-0.6507919217421523,-0.6232430865026655,0.085033313797371,1.4094555218715326,-2.239990234375,2.337646484375,35.84249999999996,0.019932923231963943,35.81,35.87,0.1536723163841808,0.0007149692412849769,2,0
34,0.03704125252312202,0.009118490013238556,0.0,0.05504428195913397,0.0370007612695944,0.00928135422448621,-0.00481637239127121,0.0550442559002424,2.545849214784182e-05,6.386065462917663e-06,-3.313920430199936e-06,3.787337634514213e-05,2.545849214784182e-05,6.386065462917663e-06,-3.313920430199936e-06,3.787337634514213e-05,-1.1289366515837107,95.76399970194716,-409.52,347.37,0.17621634319605264,0.005573627961117007,0.16891701358833405,0.19081954300062856,0.0132229571023452,0.01663151809009662,0.0001250961213114001,0.051969077400547764,0.011877077277841793,0.0528513392055376,5.480304654525981e-08,0.2961800151847015,-0.6674563001816893,0.009303612708424744,-0.6818810968603815,-0.6513626244447039,-0.007939114342331455,1.50684402808702,-2.81219482421875,2.84423828125,35.87909090909094,0.026986375503386832,35.84,35.91,0.06334841628959277,0.0012619047619046875,2,0
35,0.03334413234062928,0.011900611195203378,0.0006880535244891746,0.05366817491015562,0.03334100319206417,0.011909325241242144,-0.00068805319875303,0.05366814950273634,2.294038389593467e-05,8.194249327226857e-06,-4.734172043142766e-07,3.692654193651357e-05,2.294038389593467e-05,8.194249327226857e-06,-4.734172043142766e-07,3.692654193651357e-05,-0.8339592760181029,47.94731321230507,-155.91,201.61,0.16984443899854054,0.005094702387630123,0.16453634055355246,0.18397679558161625,0.013969665057942657,0.0156329501181272,0.0006470080850825669,0.05014745752058189,0.01886646586732005,0.07802291684303997,4.878782289274852e-08,0.4129655662508148,-0.6879282463624757,0.0030814580856090125,-0.6939015622907352,-0.6822294136854398,0.13534582187564625,1.4384647423010408,-2.79998779296875,2.496337890625,35.91145454545457,0.00922805639305444,35.89,35.93,0.15384615384615385,3.174603174601518e-05,2,0
36,0.03308260973403601,0.010724148393687221,0.0,0.0571084425326015,0.033057687169048305,0.010800675879515942,-0.0034402659937651497,0.05710841549650149,2.2745447400040728e-05,7.4314395875956575e-06,-2.3670860215713828e-06,3.9293627958084963e-05,2.2745447400040728e-05,7.4314395875956575e-06,-2.3670860215713828e-06,3.9293627958084963e-05,2.325644796380091,104.23586652098507,-351.18,402.66,0.16765363085772536,0.008171397935683333,0.15857566998581926,0.18141780674696656,0.02017646728862765,0.020486079549980368,0.0013822516798481016,0.054985584373685135,0.006441454943018536,0.023105740067487016,1.1088234563860765e-07,0.12179791741703673,-0.7011320839739927,0.003469906409515055,-0.7061056962252623,-0.6942090698160025,-0.04980493363494922,1.572633596919144,-2.83050537109375,3.05023193359375,35.910000000000025,0.013211565181516043,35.89,35.93,0.11764705882352942,-4.6176046175997e-05,2,0
37,0.037470896805382285,0.00034599340804919286,0.036466836797926255,0.037842943846904606,0.03747087906602772,0.00034599324425008083,0.03646681953391059,0.03784292593141665,2.57819582014682e-05,2.380617584532065e-07,2.5091111828656657e-05,2.603794623728521e-05,2.57819582014682e-05,2.380617584532065e-07,2.5091111828656657e-05,2.603794623728521e-05,-0.4281108597285064,14.843982591228864,-34.39,20.16,0.1570807077372139,0.0022041962679090173,0.15362961158579436,0.16193003669499595,0.001398970186027259,0.001370988887665916,4.0343827674524e-05,0.00469690690869577,0.0004318337718894294,0.003194782976353028,1.1489677269327367e-07,0.0241249675900828,-0.7143584416413343,0.005479580819603608,-0.7240808029155881,-0.7062780440863874,0.11252647002340843,1.4116612340523786,-2.38189697265625,2.63214111328125,35.893214285714315,0.010540253259551666,35.87,35.91,0.14479638009049775,-0.00028913192071085525,2,0
38,0.03744910325483275,0.0003404012272281534,0.03715489032241543,0.037842943846904606,0.03744908552579568,0.0003404010660764746,0.037154872732663616,0.03784292593141665,2.576696308639951e-05,2.3421404237286039e-07,2.556452903297093e-05,2.603794623728521e-05,2.576696308639951e-05,2.3421404237286039e-07,2.556452903297093e-05,2.603794623728521e-05,-0.07889265536723146,15.77139890455364,-35.38,26.38,0.15010512516993305,0.0021333375975097924,0.14655561187010382,0.15403766073900027,0.00025181132321767783,0.0003417843856123088,3.340663064775416e-06,0.0012764696531215151,0.00022478261173521362,0.0016478416695269475,1.3024693657610024e-07,0.012333894060615266,-0.7341328808917492,0.0060723432554024535,-0.7451249886043441,-0.7244228262294191,0.06394694978226796,1.301709719534874,-2.25372314453125,2.55584716796875,35.89581818181822,0.009083633452214043,35.89,35.91,0.14463276836158193,0.0002655122655122127,2,0
39,0.03659448473685875,0.003848603212478258,0.01513717753876184,0.04128321146935048,0.036594467412412415,0.0038486013904845935,0.01513717037256666,0.0412831919251818,2.5178940359773748e-05,2.6480424974482843e-06,1.0415178494914083e-05,2.8405032258856597e-05,2.5178940359773748e-05,2.6480424974482843e-06,1.0415178494914083e-05,2.8405032258856597e-05,0.21723981900452488,46.41356682688878,-116.17,380.05,0.14714040370916162,0.004530928600758994,0.14213966030426178,0.1654030760019093,0.009779840897812298,0.012241098950594092,0.00011222262903600144,0.03712529138857275,0.009728968207510671,0.0511086719314535,3.626094247088929e-08,0.3759758972194029,-0.7526198161845207,0.002929964546038156,-0.7552844847638849,-0.745552233891259,0.08275924775706688,1.315469850599003,-2.35748291015625,2.5360107421875,35.90490909090912,0.017567814296990673,35.89,35.95,0.14479638009049775,0.0006219336219335915,2,0
40,0.03728253826134795,0.0002674595632287596,0.03715489032241543,0.037842943846904606,0.037282520611165534,0.0002674594366088937,0.037154872732663616,0.03784292593141665,2.5652357564087986e-05,1.840263208954325e-07,2.556452903297093e-05,2.603794623728521e-05,2.5652357564087986e-05,1.840263208954325e-07,2.556452903297093e-05,2.603794623728521e-05,-7.918552036158335e-05,19.13720475312317,-37.82,34.55,0.1471723720366986,0.0011488557180886765,0.1450504522374173,0.149701530857227,0.005091080485739012,0.005402331494477779,7.870239789309089e-05,0.01631542223080692,0.0015296849072298213,0.00627797913894842,1.1137605274678938e-07,0.037085067328765466,-0.7481214812252126,0.0029941322949092104,-0.7540183182621709,-0.7449105675593443,0.13052883469667692,1.4186291451877515,-2.5787353515625,2.38189697265625,35.93181818181821,0.01161361412558095,35.91,35.95,0.14479638009049775,0.000291486291486337,2,0
41,0.03727164148607319,0.0002582638484717708,0.03715489032241543,0.037842943846904606,0.03727162384104955,0.0002582637262053104,0.037154872732663616,0.03784292593141665,2.564486000655361e-05,1.7769918293744192e-07,2.556452903297093e-05,2.603794623728521e-05,2.564486000655361e-05,1.7769918293744192e-07,2.556452903297093e-05,2.603794623728521e-05,-0.4295361990950231,19.327678126283427,-38.32,34.25,0.1437422159530188,0.0012955754762973381,0.14102724100498598,0.14669735266186334,1.0955604180994403e-05,1.659500666204809e-05,2.8161290076024863e-07,6.951982319207529e-05,3.3133675575786466e-07,1.8752402578801367e-07,7.604612015956174e-08,7.414614374650188e-07,-0.7532719301452641,0.002830197897402636,-0.7568364396031781,-0.746984521875293,0.024744259413852488,1.3892847529339754,-2.508544921875,2.35443115234375,35.918571428571454,0.009897433186109418,35.91,35.93,0.15384615384615385,6.561859193439166e-05,2,0
42,0.03678595664525723,0.0012842816689706427,0.031650462126502035,0.043347372042818,0.03678593923016505,0.0012842810609700348,0.031650447142639385,0.04334735152144089,2.531068315644941e-05,8.836536920983681e-07,2.177719139845672e-05,2.9825283871799426e-05,2.531068315644941e-05,8.836536920983681e-07,2.177719139845672e-05,2.9825283871799426e-05,-0.4255090497737556,22.300866409495644,-70.78,61.11,0.13897283522255485,0.0050067399766662146,0.12666514088326145,0.14350499792844726,0.013026743855830998,0.010686533767364044,2.8136414035212113e-07,0.03542963984004155,0.011034572271668168,0.031055868814417693,4.23750475819773e-08,0.1845907131918013,-0.7807669482375915,0.0168411856030556,-0.807571029626428,-0.7571035256944082,0.06213724126294139,1.3514611873902247,-2.813720703125,2.39715576171875,35.9016363636364,0.012470129599622149,35.89,35.93,0.14479638009049775,-0.0004848484848484407,2,0
43,0.03418678584092821,0.0052101360956904345,0.02339381983263193,0.04747569318975305,0.034186769656327366,0.0052101336291240745,0.023393808757603017,0.04747567071395907,2.352231621706895e-05,3.584849109449562e-06,1.6096184946685408e-05,3.2665787097685084e-05,2.352231621706895e-05,3.584849109449562e-06,1.6096184946685408e-05,3.2665787097685084e-05,0.5946779661016931,49.64530326990362,-314.16,225.36,0.12907328671909005,0.001749823568864805,0.12543020594307994,0.13351305541356484,0.007570705408235141,0.005420207119243136,0.0003577662290895208,0.015712098113494024,0.004847118119195654,0.018467631634464004,7.003760426824157e-08,0.11914204225282934,-0.8059626936806431,0.002297717270317644,-0.8093188566206965,-0.8030009162317809,-0.005629814645003878,1.4444220200276023,-2.984619140625,2.47802734375,35.9016363636364,0.012470129599622144,35.89,35.93,0.14463276836158193,-0.0002539682539682209,2,0
44,0.03357296462139833,0.0027425192668873,0.01926549868569689,0.0488518002387314,0.03357294872739045,0.002742517968532416,0.01926548956508484,0.04885177711146513,2.309997476345239e-05,1.8869982608863841e-06,1.3255681720799745e-05,3.3612621506313634e-05,2.309997476345239e-05,1.8869982608863841e-06,1.3255681720799745e-05,3.3612621506313634e-05,0.41175339366515795,52.80027194223982,-186.68,214.5,0.12482893131031345,0.0017344261504278699,0.12068714162604136,0.12903780728226102,0.003576351922175828,0.002934923621829607,0.00010267185255170583,0.008988139556795033,0.002761451583269306,0.010877586198292835,9.77133352243406e-08,0.06842608134522918,-0.8143257971472984,0.003809125787539281,-0.8193459711196358,-0.8062265652820696,0.08912839802756993,1.4392320934544591,-2.50091552734375,2.64434814453125,35.906428571428606,0.01315139474251489,35.89,35.93,0.13574660633484165,9.569377990431049e-05,2,0
45,0.03629871512225921,0.003664531694274787,0.018577445161207715,0.04197126499383968,0.03629869793783496,0.003664529959423657,0.018577436366331808,0.04197124512393483,2.4975435226697605e-05,2.521391560507757e-06,1.2782264516485464e-05,2.887844946317087e-05,2.4975435226697605e-05,2.521391560507757e-06,1.2782264516485464e-05,2.887844946317087e-05,0.4378846153846125,43.564717031936034,-130.62,163.13,0.12005738015000715,0.0021380016945903887,0.11683163245179788,0.12659457439345848,0.00456189482381997,0.004610100703001021,0.0001912807469973452,0.015063069321967971,0.004047047547090827,0.016596689706191756,8.998088856654318e-08,0.10770695774440316,-0.8296985516613705,0.006268988119560538,-0.8382838822105287,-0.8195502543898859,0.0941608181636788,1.4381108160736968,-2.66265869140625,2.899169921875,35.89945454545457,0.014699187586477537,35.87,35.93,0.13574660633484165,-0.00040548340548336584,2,0
46,0.03914588683332421,0.002552315617035861,0.02614603393058864,0.04128321146935048,0.039145868301000745,0.0025523144087265955,0.02614602155261514,0.0412831919251818,2.693443990246861e-05,1.7561280931477818e-06,1.7989853763942512e-05,2.8405032258856597e-05,2.693443990246861e-05,1.7561280931477818e-06,1.7989853763942512e-05,2.8405032258856597e-05,0.08319004524886768,15.435362034491732,-33.56,37.7,0.11558701968435793,0.0013349382138459589,0.11149359916146184,0.11777363463887792,0.0007916066412964443,0.0011465419691125587,9.073210120858004e-06,0.0045891075836966356,0.0003844405392490831,0.0020447320914496847,1.0045698647546477e-07,0.013314332002541918,-0.8395677609374654,0.0021766957093643747,-0.8453603003747809,-0.8378423287496197,0.03301064115857008,1.2818253145805385,-2.07977294921875,2.80303955078125,35.873272727272685,0.012799793386762194,35.84,35.89,0.14479638009049775,-0.00028427128427132415,2,0
47,0.035261964788979215,0.0027087951848834,0.02683408745507781,0.03921905089588296,0.035261948095370456,0.002708793902494077,0.02683407475136817,0.03921903232892271,2.4262096181282752e-05,1.86379430937374e-06,1.8463270968256787e-05,2.698478064591377e-05,2.4262096181282752e-05,1.86379430937374e-06,1.8463270968256787e-05,2.698478064591377e-05,-0.886187782805426,33.23260366627703,-126.98,81.53,0.11199672086008357,0.002326327588180572,0.10888644287643393,0.11867833227020234,0.0029910656724438114,0.0032550792330522035,0.00012615367262057252,0.010699154299067351,0.0019525266133829558,0.009363121580655595,9.360960184778833e-08,0.05313892794983666,-0.8530503488811751,0.0033276665150581237,-0.8574454437995359,-0.8457493700368198,0.013800597267281046,1.403022078925735,-2.5482177734375,2.7923583984375,35.87836363636361,0.009865207248183743,35.87,35.89,0.14479638009049775,-0.00016161616161618688,2,0
48,0.036013842282934604,0.003339060057297773,0.015825231063251018,0.03990710442037213,0.036013825233374375,0.003339058476530439,0.015825223571319692,0.03990708552767574,2.4779427651155724e-05,2.2974498656001632e-06,1.088859569922836e-05,2.745819785022804e-05,2.4779427651155724e-05,2.2974498656001632e-06,1.088859569922836e-05,2.745819785022804e-05,0.6006666666666677,47.19900448182494,-182.35,204.13,0.10840668775213776,0.0019792942904028,0.10523659046704986,0.11320410852197375,0.002687579417658927,0.003379689429474605,2.529916326971145e-05,0.010646708461665346,0.002070191330065482,0.015337412676355416,1.0939349909255824e-07,0.11581546516876293,-0.8631391947625472,0.003348804400539752,-0.8683958045522473,-0.8575922532433247,0.08988169896024517,1.3973959750999123,-2.37274169921875,2.34222412109375,35.88857142857144,0.011866605518454412,35.87,35.91,0.09943502824858758,5.4682159945209835e-06,2,0
49,0.03826480471825447,0.0006420271411191939,0.034402676224458736,0.03921905089588296,0.038264786603050584,0.0006420268371727171,0.0344026599376515,0.03921903232892271,2.6328208821830968e-05,4.417486190019781e-07,2.367086021571383e-05,2.698478064591377e-05,2.6328208821830968e-05,4.417486190019781e-07,2.367086021571383e-05,2.698478064591377e-05,-0.21185520361990992,14.961299493395295,-34.83,30.81,0.10432334706366092,0.0013341087274316595,0.1017401941903647,0.10675532803422656,0.00032385248093860786,0.000364068609662661,3.890657843317769e-06,0.0011191890639525442,0.0003127834408093539,0.0017417669823864214,1.0299487449759665e-07,0.01216992429261787,-0.8735330188950905,0.003404496444279954,-0.8799181901890775,-0.8685421407156897,-0.008228480686459521,1.2496328966415895,-2.30712890625,2.22930908203125,35.90309090909094,0.009510324967723216,35.89,35.91,0.13574660633484165,-2.5974025974020805e-05,2,0
50,0.03714088018277661,0.0004376381547217728,0.03577878327343708,0.03853099737139378,0.03714086259965749,0.0004376379475364917,0.035778766335157565,0.03853097913016968,2.555488931614091e-05,3.011181896981917e-07,2.4617694624342375e-05,2.651136344159949e-05,2.555488931614091e-05,3.011181896981917e-07,2.4617694624342375e-05,2.651136344159949e-05,-0.4223981900452485,16.288771141169875,-47.2,36.83,0.10046689133344998,0.0010554826698265347,0.09907895510142088,0.1031396760788394,0.0002231866336021734,0.00022673783139112285,4.701985275377765e-06,0.0006793874868788033,0.00013452186089862178,0.0009820124751233688,1.0280812410418116e-07,0.00735079069553444,-0.8850604804530617,0.0024833859666871546,-0.8890979572993218,-0.8801700601857317,0.15918509615772994,1.3078894936636345,-2.19573974609375,2.26898193359375,35.906363636363665,0.013261514566406823,35.89,35.93,0.14479638009049775,-9.090909090906257e-05,2,0
51,0.03701167556166216,0.0003084902653052072,0.03577878327343708,0.037842943846904606,0.03701165803971074,0.00030849011926071347,0.035778766335157565,0.03784292593141665,2.546598970537599e-05,2.1225761334103767e-07,2.4617694624342375e-05,2.603794623728521e-05,2.546598970537599e-05,2.1225761334103767e-07,2.4617694624342375e-05,2.603794623728521e-05,0.34968325791855204,15.888523936668884,-47.62,35.46,0.09764170042003416,0.0009953774125285699,0.09545578796453186,0.09980367541280337,5.577920094460379e-05,8.536143795770634e-05,6.554582948151643e-07,0.0003478656549667845,3.5023994767988297e-07,2.835595126865301e-07,1.0567584999992034e-07,1.5266687685600198e-06,-0.8933258175851811,0.0020429882898860404,-0.896103865852138,-0.8892672352280027,-0.048378928717703065,1.4969637110647878,-2.58331298828125,3.14788818359375,35.920181818181845,0.009998346970814304,35.91,35.93,0.14479638009049775,-5.48340548340634e-05,2,0
52,0.03713159279901301,0.0002859095426765909,0.034402676224458736,0.03990710442037213,0.037131575220290786,0.00028590940732219083,0.0344026599376515,0.03990708552767574,2.554849910505951e-05,1.9672088226161584e-07,2.367086021571383e-05,2.745819785022804e-05,2.554849910505951e-05,1.9672088226161584e-07,2.367086021571383e-05,2.745819785022804e-05,-0.2548248587570617,12.210182677360873,-31.06,24.85,0.09466282935534458,0.00134951570817304,0.09260449641058248,0.0980014917995176,0.003662403641902206,0.004084701430845245,2.845249599379671e-07,0.011292370443698107,0.003673038034619347,0.014085436196417266,1.099571197102818e-07,0.09736450335995796,-0.9063862135734359,0.007283919071274106,-0.9163879134279879,-0.8962182416674046,0.02596976160201892,1.4442998592942138,-2.50701904296875,2.37579345703125,35.92428571428574,0.011780301787480869,35.91,35.95,0.14463276836158193,0.00041558441558448055,2,0
53,0.031127416913315657,0.005638288250856689,0.01651328458774019,0.044035425567307176,0.03112740217707145,0.005638285581595924,0.016513276770072718,0.04403540472019392,2.141730863680616e-05,3.8794404299001424e-06,1.136201290354264e-05,3.0298701076113697e-05,2.141730863680616e-05,3.8794404299001424e-06,1.136201290354264e-05,3.0298701076113697e-05,-0.016651583710406658,39.064091620985174,-230.28,181.44,0.10376182391833644,0.00856299079928353,0.09240124170975246,0.11356205750243405,0.009871690097233736,0.00816622368427545,0.0007059551318751362,0.02513573836329121,0.007029726388780729,0.02812164810010897,5.4862800441535236e-08,0.1979425920386238,-0.8845836046608053,0.02125246194099971,-0.915685327425582,-0.8516338178513243,0.022087140557142487,1.6323805275316126,-3.204345703125,3.0303955078125,35.93254545454546,0.019837355195617933,35.91,35.97,0.14479638009049775,0.0009350649350650678,2,0
54,0.027877064517086474,0.00034695509039775805,0.02683408745507781,0.028210194504056162,0.02787705131961388,0.00034695492614336524,0.02683407475136817,0.02821018114887423,1.9180894332262533e-05,2.3872344675606395e-07,1.8463270968256787e-05,1.941010537688534e-05,1.9180894332262533e-05,2.3872344675606395e-07,1.8463270968256787e-05,1.941010537688534e-05,0.1490384615384615,13.0455327161906,-34.4,23.49,0.11362291227365015,0.0009341147950766588,0.1117722181200826,0.11582715188840922,0.0005701998957029921,0.0006911933591303018,2.608331846877015e-05,0.0025802675259871525,0.00034838654162777367,0.002509940353222171,9.48815362805666e-08,0.01879030976900313,-0.8453669257108308,0.0019035971483724406,-0.8510153751007927,-0.8433639993298393,0.18325819864155726,1.4295272777977788,-2.301025390625,2.46124267578125,35.942000000000036,0.014572701752375015,35.91,35.97,0.14479638009049775,-0.00033910533910538285,2,0
55,0.028378316179723164,0.000366796077924035,0.027522140979566984,0.029586301553034506,0.028378302744949707,0.0003667959042765839,0.0275221279501212,0.029586287546380288,1.9525781978844396e-05,2.523750952270148e-07,1.8936688172571066e-05,2.0356939785513888e-05,1.9525781978844396e-05,2.523750952270148e-07,1.8936688172571066e-05,2.0356939785513888e-05,0.1840610859728508,21.93291011389373,-78.59,87.06,0.11372373985968852,0.0009463935292149132,0.11058927969782356,0.1157221042509194,0.0004145154580981543,0.0004672531672499415,7.33693722610179e-06,0.0015900988988912974,0.00023087798042211344,0.0015096169577180553,9.045450156979678e-08,0.011232652107995471,-0.8447939032040117,0.001276672415638315,-0.8466584436309036,-0.8432599145459059,0.10030677628953508,1.5753010183988738,-2.7008056640625,3.01361083984375,35.916181818181855,0.014708180666296002,35.89,35.93,0.14479638009049775,-0.0006810966810967224,2,0
56,0.02884376415217162,0.00020235072115861081,0.028210194504056162,0.029586301553034506,0.028843750497047387,0.0002023506253623686,0.02821018114887423,0.029586287546380288,1.984603479352765e-05,1.3922799505025316e-07,1.941010537688534e-05,2.0356939785513888e-05,1.984603479352765e-05,1.3922799505025316e-07,1.941010537688534e-05,2.0356939785513888e-05,-0.6272171945701365,19.165524234392095,-46.37,27.36,0.11459179954978314,0.0010129269593476726,0.1117353430723888,0.11662023118039135,0.0010678633336104195,0.0008225049322413534,4.5303489140145695e-05,0.0027059638052680858,0.0006990613641302531,0.0035545207424530147,9.084095416167504e-08,0.024536010361806013,-0.8431702110308332,0.002274742645551899,-0.8466121288686139,-0.8398019587644163,-0.10331629523568353,1.2892999315335418,-2.61688232421875,2.2491455078125,35.87839285714282,0.016984949820595542,35.84,35.91,0.13574660633484165,-0.0008130553656869341,2,0
57,0.0291239669449502,0.0003606433177517144,0.028210194504056162,0.029586301553034506,0.02912395315717285,0.0003606431470170856,0.02821018114887423,0.029586287546380288,2.003882913012638e-05,2.481416709134654e-07,1.941010537688534e-05,2.0356939785513888e-05,2.003882913012638e-05,2.481416709134654e-07,1.941010537688534e-05,2.0356939785513888e-05,0.9368474576271186,22.846982911110448,-60.03,36.42,0.11539038316511875,0.000678437662062201,0.1137369282968822,0.1166009440332461,0.00012518954719541674,0.00012221906780906212,8.138151474605873e-06,0.0004056617425654169,9.324051049247404e-05,0.0005828999230202849,1.0016694755663867e-07,0.004347232110245468,-0.8396274817300424,0.00021900884812918158,-0.8399796216952115,-0.8393568722018315,0.1932034102935949,1.4799811196232584,-2.66265869140625,2.55889892578125,35.836363636363615,0.012411671393364323,35.81,35.87,0.12655367231638415,-0.0005064935064935637,2,0
58,0.02946955038937695,0.0002582638484717694,0.02889824802854533,0.029586301553034506,0.029469536437994482,0.00025826372620530764,0.028898234347627262,0.029586287546380288,2.0276608811931275e-05,1.7769918293744017e-07,1.9883522581199616e-05,2.0356939785513888e-05,2.0276608811931275e-05,1.7769918293744017e-07,1.9883522581199616e-05,2.0356939785513888e-05,-0.3426696832579189,22.78147130793443,-56.72,30.26,0.11570123077121305,0.0007085176620267461,0.11424424404072887,0.11710083739739095,1.6867481349847e-05,2.4401701404821718e-05,3.721043141162607e-07,7.485417621693159e-05,1.4987581399802075e-05,0.000107614397938637,1.1285601954021986e-07,0.0008057784044582061,-0.8384421446274626,0.0010085458399678325,-0.8399632537838816,-0.8371835242258803,0.0435602059717842,1.3688982755200467,-2.20794677734375,2.33917236328125,35.79036363636361,0.01683758094951272,35.77,35.81,0.14479638009049775,-0.0008369408369408334,2,0
59,0.029449313521009587,0.0002747533026726921,0.02889824802854533,0.029586301553034506,0.029449299579207656,0.0002747531725998446,0.028898234347627262,0.029586287546380288,2.0262684776510252e-05,1.8904479927486645e-07,1.9883522581199616e-05,2.0356939785513888e-05,2.0262684776510252e-05,1.8904479927486645e-07,1.9883522581199616e-05,2.0356939785513888e-05,-0.4702488687782811,21.984268813800263,-50.09,33.99,0.11580283254884514,0.0006036059307532168,0.11439447171634402,0.11686862720177532,5.478802245343156e-06,7.2629896064928516e-06,3.417732886016474e-07,3.0594654576370834e-05,5.425288471367665e-07,8.56857384116772e-07,7.525327152330158e-08,5.838273793460252e-06,-0.8383718793612818,0.000480246425679479,-0.8389009076354241,-0.8373015229886063,-0.018477950196221303,1.3867983352490174,-2.40020751953125,2.435302734375,35.75472727272728,0.015708080775605062,35.73,35.79,0.14479638009049775,-0.00030158730158731493,2,0
60,0.029570734731213574,0.0008925478623108424,0.02476992688161029,0.03715489032241543,0.029570720731928787,0.0008925474397636287,0.024769915155109082,0.037154872732663616,2.03462289890363e-05,6.141201209681921e-07,1.7043019355313955e-05,2.556452903297093e-05,2.03462289890363e-05,6.141201209681921e-07,1.7043019355313955e-05,2.556452903297093e-05,0.3839819004524887,25.0362876050024,-61.39,49.05,0.11488754133681993,0.0007417075555071334,0.1126696727856125,0.1165564764953753,0.013553207663736948,0.011768240638161186,2.1507682790344306e-07,0.03506807693242072,0.014013084463080442,0.02523162766555006,7.560385591073222e-08,0.09911244813137626,-0.8545470437057411,0.01250116104322515,-0.8775992960565133,-0.8390040090947103,0.07280692076071715,1.382026718881867,-2.32391357421875,2.36358642578125,35.7164285714286,0.02091040166900525,35.68,35.75,0.14479638009049775,-0.0009897470950101987,2,0
61,0.03267320232014328,0.0011618992800549448,0.030962408602012863,0.03921905089588296,0.032673186852098204,0.0011618987299922287,0.03096239394388635,0.03921903232892271,2.248089072704147e-05,7.994481377982214e-07,2.1303774194142445e-05,2.698478064591377e-05,2.248089072704147e-05,7.994481377982214e-07,2.1303774194142445e-05,2.698478064591377e-05,-0.04822398190045348,34.394816300739215,-171.28,101.42,0.1032730838317886,0.003368504799500424,0.09951985248330003,0.11529236864788815,0.008438977565464903,0.005735269941842663,0.0012458287005723415,0.02806942980789596,0.002969727030099802,0.011808479554490069,3.542750343088485e-08,0.059679710093150075,-0.8844103891523052,0.001890944544563347,-0.8861011072673318,-0.878309975379698,0.1260102072542104,1.5401682257931084,-2.69012451171875,2.557373046875,35.670363636363675,0.02053499331417664,35.65,35.71,0.14479638009049775,-0.0010129870129870892,2,0
62,0.03234006881921813,0.0005074892510833652,0.030962408602012863,0.03577878327343708,0.03234005350888405,0.0005074890108293939,0.03096239394388635,0.035778766335157565,2.2251677264631768e-05,3.4917943723317534e-07,2.1303774194142445e-05,2.4617694624342375e-05,2.2251677264631768e-05,3.4917943723317534e-07,2.1303774194142445e-05,2.4617694624342375e-05,-0.2922937853107347,16.413706468963184,-32.46,28.85,0.10125644732808192,0.0008447559539663072,0.09962922518929858,0.103209300671351,0.0010403904131042858,0.0007776235436819116,9.187681986918384e-05,0.0026841681960926003,0.0007136549820268682,0.0032972486834998995,8.213577552818041e-08,0.020287178352539688,-0.8838099237795213,0.0008190332410732031,-0.8859734828188212,-0.8830442068740729,-0.0649738804877359,1.3401632477744836,-2.58026123046875,2.58941650390625,35.656545454545494,0.008139283376581463,35.65,35.68,0.14463276836158193,-3.0303030303037604e-05,2,0
63,0.033540274295574116,0.0003166614511385359,0.032338515650991204,0.034402676224458736,0.033540258417042584,0.00031666130122566267,0.032338500341392414,0.0344026599376515,2.307748209084921e-05,2.1787982122961134e-07,2.2250608602771e-05,2.367086021571383e-05,2.307748209084921e-05,2.1787982122961134e-07,2.2250608602771e-05,2.367086021571383e-05,-0.009943438914026955,16.0945601422739,-36.17,29.38,0.0988297989193896,0.000900252951329948,0.0964519022877797,0.10061484495287447,0.0011381491734656134,0.0009451001880418088,5.364772594708498e-05,0.002928269728886075,0.0009180992070700744,0.003773041860441551,7.353122710718196e-08,0.02451220409889441,-0.891116299386366,0.002928983748539596,-0.89568975709501,-0.886131940199726,0.1371326872491955,1.4289482445631567,-2.31781005859375,2.74200439453125,35.66571428571431,0.011157499537010538,35.65,35.68,0.14479638009049775,0.00021872863978130162,2,0
64,0.03656957782194504,0.006647293939252892,0.02064160573467524,0.060548710155047376,0.03656956050929002,0.006647290792311814,0.020641595962590898,0.06054868149026664,2.516180308540949e-05,4.5736896926917085e-06,1.4202516129428297e-05,4.166071397965634e-05,2.516180308540949e-05,4.5736896926917085e-06,1.4202516129428297e-05,4.166071397965634e-05,1.2298981900452464,69.18579975932961,-261.35,212.29,0.10459930080732248,0.008195136107567171,0.09465757791113448,0.12762936362851554,0.025978403750760284,0.02035433390238496,0.00027556502984937457,0.06262858441592853,0.021174364116328385,0.08441348098765747,4.253358265593477e-08,0.495598932303859,-0.8975916818203734,0.0008604704069806527,-0.8987982983099747,-0.8958008348110315,0.0015378700960830061,1.6385082349368798,-3.85894775390625,2.96173095703125,35.690181818181834,0.01863436796410157,35.66,35.71,0.14479638009049775,0.0008167388167388798,2,0
65,0.03746778344101799,0.004426743501353651,0.02064160573467524,0.0488518002387314,0.037467765703137125,0.004426741405658642,0.020641595962590898,0.04885177711146513,2.577981604217273e-05,3.0458335842159138e-06,1.4202516129428297e-05,3.3612621506313634e-05,2.577981604217273e-05,3.0458335842159138e-06,1.4202516129428297e-05,3.3612621506313634e-05,-0.4940497737556549,65.80202213521635,-173.57,444.13,0.10704044526405623,0.009726952029677823,0.09421761575784912,0.1337623345155346,0.030058927061305668,0.02988947003987306,0.002272857281982875,0.09286385673149876,0.022085969819975317,0.12967917893970612,4.582042234524408e-08,0.9673040262005476,-0.8952929438202389,0.0030561136130964764,-0.898808172470875,-0.8898426066431452,0.060218177553219676,4.337585915843398,-10.64453125,10.43243408203125,35.70400000000002,0.017013363731330857,35.66,35.73,0.11764705882352942,0.00012554112554114775,2,0
66,0.03972652928724827,0.00042615578569143764,0.037842943846904606,0.04128321146935048,0.039726510480039084,0.0004261555839420991,0.03784292593141665,0.0412831919251818,2.733395261108673e-05,2.932177126978268e-07,2.603794623728521e-05,2.8405032258856597e-05,2.733395261108673e-05,2.932177126978268e-07,2.603794623728521e-05,2.8405032258856597e-05,0.038291855203619635,18.12285977130503,-68.34,59.5,0.09780868867659194,0.0011239090916764127,0.09576779515433227,0.10001916982032254,0.0005338025963387667,0.0004166970946243858,7.993665241130353e-05,0.002015727817685473,0.00018461647693267374,0.0009504338161785843,8.856760435466128e-08,0.005523800108805487,-0.8935227979099767,0.003369891769104464,-0.8990079639529411,-0.8894393786864535,0.13446999168139606,1.4281733445336031,-2.98309326171875,2.65960693359375,35.694363636363676,0.017243036682951792,35.66,35.71,0.13574660633484165,-0.0005259740259740571,2,0
67,0.039184803887876735,0.0015276724077482565,0.032338515650991204,0.04472347909179635,0.03918478533712957,0.0015276716845223676,0.032338500341392414,0.04472345791894695,2.696121689366279e-05,1.0511193891800442e-06,2.2250608602771e-05,3.077211828042797e-05,2.696121689366279e-05,1.0511193891800442e-06,2.2250608602771e-05,3.077211828042797e-05,-0.5545197740112976,23.76916155527093,-65.1,62.53,0.09784316239857004,0.0023040646097471987,0.09369306720939416,0.10168548348552564,0.003935840208902383,0.0042923742394520405,1.1760697506150405e-05,0.012426819050092564,0.003136308163119712,0.014225425415801537,8.898890786843831e-08,0.08713087413628531,-0.8963225659830696,0.0029119713640043754,-0.8993460078060808,-0.8903363628011733,-0.10913039866086433,1.5098962022726985,-2.65350341796875,2.88848876953125,35.67553571428575,0.0166818595718689,35.65,35.71,0.13559322033898305,-0.0007911825017088987,2,0
68,0.03968449886833154,0.0003625733030197149,0.03921905089588296,0.040595157944861314,0.039684480081020254,0.000362573131371394,0.03921903232892271,0.04059513872642877,2.730503346059689e-05,2.494696028219906e-07,2.698478064591377e-05,2.793161505454232e-05,2.730503346059689e-05,2.494696028219906e-07,2.698478064591377e-05,2.793161505454232e-05,-0.16229638009049788,15.591297645179345,-33.37,25.69,0.09941353614654724,0.0008401402957975856,0.09744494990840027,0.10124243974956333,0.0005163014962513443,0.0005069416254757873,1.2017251823196195e-05,0.0016290531373314744,0.00027128253907829656,0.0019846419276745787,1.4678044210798824e-07,0.014855346827090618,-0.8886363397232109,0.0011343847959773706,-0.8911653697279843,-0.887313614886625,0.15475293150511193,1.3038463339749409,-2.16522216796875,2.520751953125,35.65345454545458,0.008139283376579976,35.63,35.66,0.14479638009049775,-0.00014285714285711443,2,0
69,0.03951170714611813,0.0003401697864837353,0.03921905089588296,0.03990710442037213,0.03951168844060947,0.00034016962544161904,0.03921903232892271,0.03990708552767574,2.718614361969448e-05,2.340547989037243e-07,2.698478064591377e-05,2.745819785022804e-05,2.718614361969448e-05,2.340547989037243e-07,2.698478064591377e-05,2.745819785022804e-05,-0.01790723981900447,15.226974250602114,-31.14,24.44,0.0972388284477091,0.0011895931375652956,0.09526119598675196,0.100275287844752,2.3421510422216802e-06,2.469505848381286e-06,4.5224773176528904e-07,1.0659116669233133e-05,5.826054736110938e-07,7.587812295777995e-07,9.154845110566694e-08,3.410370836687082e-06,-0.8946743799617596,0.0018303153557626328,-0.8976955261104553,-0.8913210177101817,0.012746477013671672,1.41420198709634,-2.31475830078125,2.57110595703125,35.631818181818204,0.0138945259451215,35.61,35.65,0.14479638009049775,-0.00047619047619045646,2,0
70,0.039612891487954736,0.0004010715438652316,0.03853099737139378,0.040595157944861314,0.03961287273454368,0.0004010713539911966,0.03853097913016968,0.04059513872642877,2.725576379679959e-05,2.7595842804185185e-07,2.651136344159949e-05,2.793161505454232e-05,2.725576379679959e-05,2.7595842804185185e-07,2.651136344159949e-05,2.793161505454232e-05,-0.20280542986425326,14.939391991637061,-32.69,23.64,0.09548685627374354,0.000713939590671376,0.09392492647100782,0.09698745590950678,3.657055077774156e-07,4.0080908778023695e-08,2.9057392938445634e-07,4.3747411744611634e-07,2.662439235550292e-07,9.774146672780352e-08,1.4681932687347224e-07,5.568853270048191e-07,-0.8999717084651504,0.001085750587170334,-0.9017874636703546,-0.8978029636026821,0.049330966078918286,1.3843704803888073,-2.39410400390625,2.60772705078125,35.609999999999964,0.010787197799411643,35.59,35.63,0.15384615384615385,4.617604617598572e-05,2,0
71,0.04031248132757659,0.00044250305216066025,0.03921905089588296,0.04128321146935048,0.04031246224296808,0.00044250284267224963,0.03921903232892271,0.0412831919251818,2.7737118595884834e-05,3.044654963579525e-07,2.698478064591377e-05,2.8405032258856597e-05,2.7737118595884834e-05,3.044654963579525e-07,2.698478064591377e-05,2.8405032258856597e-05,0.3671186440677978,14.674717085119445,-29.24,26.58,0.09333017294614508,0.0010251388651582672,0.09167224593724516,0.09564566232471224,0.0002633515115136228,0.0002634170612999334,2.3934373836971504e-07,0.0008319261069031107,0.0002481975677217576,0.0013454538401263918,1.2625977382208067e-07,0.009042026593739759,-0.9069147059007896,0.0030649469604785546,-0.9107679709494568,-0.9018912011840978,0.04008717872699307,1.4212963882096985,-2.33612060546875,2.54974365234375,35.61714285714283,0.014356965173029968,35.59,35.65,0.1536723163841808,6.561859193433727e-05,2,0
72,0.02227145197933633,0.01622917476606073,0.0,0.05435622843464479,0.0220815262993478,0.016486635924820227,-0.011696904378801509,0.054356202701489366,1.5193264803615476e-05,1.1343682584749194e-05,-8.048092473342704e-06,3.739995914082785e-05,1.5193264803615476e-05,1.1343682584749194e-05,-8.048092473342704e-06,3.739995914082785e-05,-0.8484615384615392,68.42978787541182,-199.15,327.42,0.09710300191748457,0.005616338525368414,0.08443147677662988,0.10978813308243143,0.026896360974232484,0.01912895431782046,6.262961985049615e-05,0.05411732824197172,0.02379058824467971,0.06179035320790247,6.222949333611894e-08,0.36016400003129145,-0.9217569489866168,0.012937919265289968,-0.9519192324354148,-0.9104581265278048,0.2410344334968107,1.5843280768335917,-3.09600830078125,2.85491943359375,35.622000000000035,0.012416997148338138,35.61,35.65,0.1719457013574661,0.00031601731601731516,2,0
73,0.034380882673909215,0.00647071945585201,0.004816374671424223,0.060548710155047376,0.03435907285718751,0.006585458014740774,-0.00481637239127121,0.06054868149026664,2.364086998557626e-05,4.531145452296186e-06,-3.313920430199936e-06,4.166071397965634e-05,2.364086998557626e-05,4.531145452296186e-06,-3.313920430199936e-06,4.166071397965634e-05,1.618325791855205,96.16897371354014,-404.55,299.43,0.08289702216347697,0.008886046199174664,0.07436339901748729,0.10385786642386227,0.01833075844275781,0.013044644995670335,0.0024347562227097965,0.05001199887366059,0.015078855246899656,0.06317585266472707,7.575974676765629e-08,0.41011978635571417,-0.9562740206669756,0.014076987802836468,-0.9708473849845576,-0.9224197043786404,-0.09336766406775088,1.6447422073783209,-4.22515869140625,2.9022216796875,35.648181818181854,0.01192261549872854,35.63,35.66,0.0904977375565611,0.00035064935064928085,2,0
74,0.033709952653423296,5.64927663596861e-05,0.03302656917548038,0.03371462269996956,0.03370993669456314,5.649273961505807e-05,0.033026553540145435,0.03371460673889847,2.3194229772456065e-05,3.8870010198461785e-08,2.272402580708528e-05,2.319744301139956e-05,2.3194229772456065e-05,3.8870010198461785e-08,2.272402580708528e-05,2.319744301139956e-05,-1.0206900452488672,20.198947524188558,-74.36,52.23,0.10253955965515604,0.0013770787892983967,0.09965227257052693,0.10531879137041622,0.008920636812888844,0.010612078959588728,0.00030900016889202637,0.0313386259729766,0.002851601332019897,0.011293908329485715,1.0098182171708324e-07,0.06560254014230649,-0.8875214300969503,0.01426047645957706,-0.9204877657772668,-0.8739972109730161,-0.004627810381472314,1.7437760655000034,-2.84271240234375,4.1534423828125,35.71254545454547,0.020200646417935744,35.66,35.73,0.15384615384615385,0.0007734487734487352,2,0
75,0.03371617938215171,3.2690325824146364e-05,0.03371462269996956,0.034402676224458736,0.033716163420343705,3.269031034799459e-05,0.03371460673889847,0.0344026599376515,2.319851409104715e-05,2.249267260316713e-08,2.319744301139956e-05,2.367086021571383e-05,2.319851409104715e-05,2.249267260316713e-08,2.319744301139956e-05,2.367086021571383e-05,0.3774773755656108,24.484146871968626,-57.85,35.32,0.10400897260947824,0.0013764228573097427,0.10156258893146324,0.1084109130770118,0.0034367618879662352,0.002496880887595765,0.00024989596091597665,0.008833776712781748,0.002556138753297507,0.009140409317467969,6.130659662220704e-08,0.03849316258597826,-0.8772284189764009,0.006983455054585229,-0.8839608710781017,-0.8585015346035824,0.03655783098724088,1.8533180050161675,-3.2562255859375,3.40118408203125,35.71303571428574,0.018604880586357102,35.68,35.73,0.15384615384615385,-0.0005451127819548756,2,0
76,0.03371617938215171,3.2690325824146384e-05,0.03371462269996956,0.034402676224458736,0.033716163420343705,3.2690310347994604e-05,0.03371460673889847,0.0344026599376515,2.319851409104715e-05,2.249267260316717e-08,2.319744301139956e-05,2.367086021571383e-05,2.319851409104715e-05,2.249267260316717e-08,2.319744301139956e-05,2.367086021571383e-05,-0.26167231638418137,25.39920227238277,-54.1,34.0,0.12445288023000635,0.005194548347197343,0.10971626111953532,0.13002344579608147,0.015629734066373524,0.008586520217116637,0.0007072472190693734,0.02789203138290076,0.012253603695481115,0.02970188751282743,1.0127034023865722e-07,0.15510524504987566,-0.8280444268287654,0.014370085495734994,-0.8571731154114448,-0.8102775064645212,0.053305877401515635,1.635899319876965,-2.85491943359375,2.95562744140625,35.68145454545457,0.017206571875377382,35.66,35.71,0.1536723163841808,-0.0007965367965368702,2,0
77,0.0337146226999696,4.163336342344337e-17,0.03371462269996956,0.03371462269996956,0.03371460673889856,9.020562075079396e-17,0.03371460673889847,0.03371460673889847,2.3197443011399373e-05,1.7957098481791167e-19,2.319744301139956e-05,2.319744301139956e-05,2.3197443011399373e-05,1.7957098481791167e-19,2.319744301139956e-05,2.319744301139956e-05,0.5727941176470582,31.598095222936987,-71.23,43.5,0.12355580494172022,0.0015162182425783118,0.11977979714785275,0.1260830909350987,0.0004874297393920544,0.00048783523439534845,1.9159547535207824e-05,0.0021592314426835415,0.0006444741642468246,0.003793746622127328,8.983930097159617e-08,0.02742128148264877,-0.8149869598925208,0.00403533734435797,-0.8216585363843916,-0.8099229831271116,0.22229125711494094,1.5723804768804412,-2.50701904296875,2.825927734375,35.65581818181821,0.008881217994050412,35.63,35.68,0.14479638009049775,-7.720057720052802e-05,2,0
78,0.03034596245790025,0.0010157157396631915,0.02476992688161029,0.03371462269996956,0.03034594809160985,0.0010157152588062377,0.024769915155109082,0.03371460673889847,2.087962665362545e-05,6.988661328438871e-07,1.7043019355313955e-05,2.319744301139956e-05,2.087962665362545e-05,6.988661328438871e-07,1.7043019355313955e-05,2.319744301139956e-05,-1.3070475113122162,40.292481802592185,-86.01,95.89,0.12142198121649796,0.0012132626164203318,0.11899148609066107,0.12405009792838398,0.0019125076281522047,0.0021587087599173305,4.1839244172135626e-05,0.006972611174090298,0.0012331703161315634,0.006611295450091389,6.878628191694933e-08,0.047050380221455926,-0.8228234433583964,0.0005814323384116374,-0.8235033765081555,-0.8215862808076969,0.025979228330834454,1.5356484489403623,-2.62908935546875,2.70233154296875,35.619818181818154,0.021190985140848568,35.57,35.65,0.14479638009049775,-0.0010995670995671157,2,0
79,0.02987428775672338,0.0077078037930394735,0.0,0.057796496057090675,0.029818233081706443,0.007921829516817086,-0.006880531987530299,0.057796468695254524,2.0516530653031517e-05,5.4506401390221634e-06,-4.7341720431427655e-06,3.976704516239923e-05,2.0516530653031517e-05,5.4506401390221634e-06,-4.7341720431427655e-06,3.976704516239923e-05,-2.63670814479638,79.03680353072059,-306.06,257.19,0.12162219089479932,0.003624127011076294,0.10255769399184783,0.1254714648288698,0.00822739822007997,0.0073500231694264544,0.0004160642481519306,0.022035047950461968,0.007244964928534606,0.01851406426883148,3.261570918899892e-08,0.09886002892730704,-0.8297959725136687,0.012136910524530316,-0.8633473747708964,-0.820600625552217,-0.008756923123368357,1.681329890203239,-3.9764404296875,3.02581787109375,35.58428571428569,0.01590789817951519,35.55,35.61,0.16289592760180996,-0.0007874231032126222,2,0
80,0.03594067822037573,0.01105417587864994,0.0006880535244891746,0.05986065663055819,0.03577876633515758,0.011567441206995478,-0.00963274478254242,0.05986062829151361,2.4617694624342348e-05,7.959014923860851e-06,-6.627840860399872e-06,4.1187296775342064e-05,2.4617694624342348e-05,7.959014923860851e-06,-6.627840860399872e-06,4.1187296775342064e-05,6.367579185520352,185.47500184044827,-506.96,464.19,0.1027646171783328,0.017942086945799886,0.07909463560867043,0.14235200640976176,0.09120697412722548,0.09307467155221756,0.004893101299743343,0.3007597411582404,0.10712189320964044,0.2604434985252389,7.309989241699455e-08,1.1485719657839129,-0.9684164658895184,0.06386378601618392,-1.0624761571654613,-0.8660866364760628,-0.8056306133915184,7.363705718533952,-19.024658203125,13.66729736328125,35.53636363636362,0.01985068227484482,35.5,35.57,0.14479638009049775,-0.0010129870129869612,2,0
81,0.04136708255359977,0.00408870879342404,0.02476992688161029,0.05091596081219893,0.04136706296972503,0.004088706857760334,0.024769915155109082,0.05091593670772422,2.846273999933736e-05,2.8132478322454383e-06,1.7043019355313955e-05,3.5032873119256466e-05,2.846273999933736e-05,2.8132478322454383e-06,1.7043019355313955e-05,3.5032873119256466e-05,-3.4216271186440657,193.75449829852158,-668.24,421.31,0.13093662119431604,0.005758631965398696,0.11578717904075793,0.1433251613713627,0.22495225406779387,0.1933116908350924,0.03308165716016386,0.9062866036971772,0.3210162695629095,0.5541925766546489,3.3965820822601245e-08,2.5360428816779312,-1.0169981191947008,0.18786862624690967,-1.6733166834542446,-0.826716893728085,0.9094815811425478,1.7254194375007723,-2.27203369140625,4.6722412109375,35.52872727272725,0.010454150190156093,35.5,35.55,0.13559322033898305,-0.00010173160173159941,2,0
82,0.013583608721023849,0.0060607161259914714,0.0,0.044035425567307176,0.013346986710652677,0.006565397330519603,-0.022705755558849988,0.04403540472019392,9.18343689997874e-06,4.5173426343485915e-06,-1.5622767742371126e-05,3.0298701076113697e-05,9.18343689997874e-06,4.5173426343485915e-06,-1.5622767742371126e-05,3.0298701076113697e-05,3.8404293785310752,184.44427264047025,-659.0,450.12,0.7670091117113758,0.016014180301201147,0.7429530325676109,0.806885757687815,0.3876348209759217,0.29507386071186703,0.035893859469800775,0.9520800357804718,0.1662898410665071,0.4038583249173247,7.031722493167081e-08,1.8398512157106008,0.7522039027614335,0.25235941955803953,0.23176209760684816,1.0328900848531035,0.7110568877952915,5.001307829719539,-7.02362060546875,11.82708740234375,34.06999999999998,0.01078719779941356,34.05,34.09,0.16271186440677968,0.00013852813852816015,2,1
83,0.0132629321915108,0.0049595005060329,0.0,0.032338515650991204,0.01325047246105383,0.004992675164957196,-0.0020641595962590893,0.032338500341392414,9.117029961817011e-06,3.4352261175836056e-06,-1.4202516129428296e-06,2.2250608602771e-05,9.117029961817011e-06,3.4352261175836056e-06,-1.4202516129428296e-06,2.2250608602771e-05,-2.6393099547511287,129.4555661626671,-562.85,352.3,0.7435013466631291,0.00833675320439473,0.7260443128775541,0.7563118484476807,0.0446730476051492,0.01940770404643348,0.014071569745844456,0.08096753644282059,0.03199971512299924,0.08148883054654013,7.567752258186289e-08,0.3238262272174586,1.0242395431460234,0.012353884506803471,0.9986663647539183,1.037838218392396,-0.3648792843132821,4.938362463612629,-7.69805908203125,12.89520263671875,34.086363636363615,0.013261514566407845,34.07,34.11,0.13574660633484165,-0.00013708513708516056,2,1
84,0.011338873014432463,0.002132638681719561,0.005504428195913397,0.019953552210186062,0.01133886764641872,0.002132637672092436,0.00550442559002424,0.01995354276383787,7.801744154355631e-06,1.467368172064417e-06,3.7873376345142126e-06,1.372909892511402e-05,7.801744154355631e-06,1.467368172064417e-06,3.7873376345142126e-06,1.372909892511402e-05,3.1366628959275977,116.42842146647844,-664.48,309.9,0.73010685867725,0.007743419087966072,0.7178062382823763,0.7500119042500393,0.06517241203586725,0.031137880702405907,0.009031265905546686,0.1031602494015637,0.05641194020697485,0.12510492082610014,7.084445852179044e-08,0.6551593823656001,0.9623935713955044,0.0216251227244434,0.9235073030489904,0.9974712093145668,0.5666690779476818,5.121750722569034,-6.170654296875,13.61846923828125,34.072545454545434,0.012680433290302124,34.05,34.09,0.1809954751131222,-0.0003809523809524405,2,1
85,0.011390243526441864,0.002182990766903105,0.005504428195913397,0.018577445161207715,0.011390238134108426,0.002182989733438454,0.00550442559002424,0.018577436366331808,7.83708978273203e-06,1.502013068937349e-06,3.7873376345142126e-06,1.2782264516485464e-05,7.83708978273203e-06,1.502013068937349e-06,3.7873376345142126e-06,1.2782264516485464e-05,-0.5953733031674179,110.41062369359273,-762.88,190.96,0.6922361424355871,0.011894136066892205,0.671121921448427,0.7177334362953914,0.0446357554347066,0.017225094288154347,0.02233636623019829,0.08691576971103165,0.03623839241332627,0.10234637431662602,7.208756214183153e-08,0.5577547181907061,0.8681752676406935,0.033888659125899966,0.8075996221324917,0.9218639158655608,0.5590484593898625,3.5555282889316224,-4.84771728515625,8.642578125,34.05999999999999,0.012535663410560916,34.03,34.07,0.06334841628959277,-0.00020779220779222084,2,1
86,0.01155369515556257,0.0031125174138964358,0.0,0.02889824802854533,0.01152566941983583,0.00321472320124908,-0.00481637239127121,0.028898234347627262,7.93027371208802e-06,2.2119005817250147e-06,-3.313920430199936e-06,1.9883522581199616e-05,7.93027371208802e-06,2.2119005817250147e-06,-3.313920430199936e-06,1.9883522581199616e-05,-0.8598981900452549,85.2065186288282,-303.7,233.47,0.6497269691828848,0.012820016323244246,0.6279291889825618,0.6792659672855463,0.036883898408424313,0.014604076470814131,0.009660754634677785,0.07345449732244441,0.034058197137157326,0.09158637762376873,9.338711315365344e-08,0.4457385879086437,0.7475810622277155,0.03133345821598565,0.7010186726788037,0.8052509104417469,-0.9952149535640542,6.059789569696275,-7.98492431640625,19.27032470703125,34.029090909090904,0.019750509983999312,34.0,34.05,0.14479638009049775,-0.0005887445887445187,2,1
87,0.01236011274917574,0.003846846228132314,0.0013761070489783493,0.02889824802854533,0.012332149882842121,0.003935547443606475,-0.004128319192518179,0.028898234347627262,8.485175174391307e-06,2.7078660074177486e-06,-2.84050322588566e-06,1.9883522581199616e-05,8.485175174391307e-06,2.7078660074177486e-06,-2.84050322588566e-06,1.9883522581199616e-05,3.2779548022598872,46.206805248766024,-114.74,204.83,0.6212784634155757,0.01879648859820403,0.5928850487505486,0.6574996237814084,0.03874723172510315,0.02776143428983683,0.002591057980598489,0.08794579523217612,0.016131530194471864,0.04971931716709094,9.62049269137566e-08,0.242905403891978,0.6583337732656537,0.0290442769365964,0.6031999604879221,0.6998187304695982,1.6147907813307911,5.557526951112774,-5.694580078125,17.01507568359375,33.99963636363636,0.015604618939000616,33.97,34.03,0.0903954802259887,-0.0006240981240981263,2,1
88,0.012658939504855192,0.0033878626205373443,0.0020641605734675237,0.036466836797926255,0.012587326165423116,0.003644916999356322,-0.006880531987530299,0.03646681953391059,8.660750031867053e-06,2.507896800596407e-06,-4.7341720431427655e-06,2.5091111828656657e-05,8.660750031867053e-06,2.507896800596407e-06,-4.7341720431427655e-06,2.5091111828656657e-05,-1.6453506787330232,119.31804433461136,-731.27,306.62,0.6135593828866195,0.025309880017704525,0.5869399238499572,0.6680828842828317,0.08600816873677818,0.07758334088788034,0.008633618078644807,0.2555658534250808,0.0684560243373316,0.20551940824385426,6.410283570623676e-08,1.1418162957110318,0.5877507973757803,0.008058173800520691,0.5778537435530255,0.6031993971063975,-0.9449767119831246,5.298611976273242,-7.97271728515625,12.62969970703125,33.965000000000025,0.01149534067102102,33.95,33.99,0.12669683257918554,-0.00044565960355424407,2,1
89,0.011156741199126506,0.0017095411148453144,0.0061924817204025715,0.018577445161207715,0.01115673591733703,0.0017095403055197127,0.006192478788777271,0.018577436366331808,7.67642783556655e-06,1.1762546756100705e-06,4.260754838828489e-06,1.2782264516485464e-05,7.67642783556655e-06,1.1762546756100705e-06,4.260754838828489e-06,1.2782264516485464e-05,-1.0711538461538512,77.66685440021566,-231.38,223.31,0.6052544270888623,0.011974741968448391,0.5910811483252563,0.6350872729412753,0.04770929858187085,0.03321637600236228,0.008854265197427331,0.12645422029220899,0.04210828030752913,0.11818306686889996,7.707391125322259e-08,0.6762605875684239,0.6009424943705515,0.008157626575262892,0.5815148699139041,0.608549107336399,-0.4400010908196056,3.5479409451271136,-6.365966796875,9.13238525390625,33.94418181818184,0.011861459222037156,33.93,33.97,0.0995475113122172,-0.00024242424242430595,2,1
90,0.015141847585308147,0.006303649710023229,0.0006880535244891746,0.03371462269996956,0.01496749209504612,0.0067071211140817604,-0.00963274478254242,0.03371460673889847,1.0298430813307173e-05,4.6148561369679424e-06,-6.627840860399872e-06,2.319744301139956e-05,1.0298430813307173e-05,4.6148561369679424e-06,-6.627840860399872e-06,2.319744301139956e-05,-1.0763009049773753,73.20705766426954,-240.46,278.76,0.598676838942294,0.015685086469128053,0.5791634104877523,0.6359540114784625,0.05497102162061542,0.04106422048179771,0.010312372759603696,0.1549700350780366,0.043168025028600385,0.1398310025963556,7.459915907226389e-08,0.789228107517032,0.5737490874412472,0.0077176040193381815,0.5653632175851345,0.5936174539275203,0.7307713508310122,3.4324640972602736,-3.70025634765625,11.76910400390625,33.912181818181836,0.014102341403393528,33.89,33.95,0.14479638009049775,-0.00040981240981243487,2,1
91,0.011124050873302337,0.00111830470466925,0.00756858876938092,0.014449124014272669,0.011124045606989062,0.0011183041752449428,0.00756858518628333,0.014449117173813631,7.653935162963388e-06,7.694527649561527e-07,5.207589247457042e-06,9.941761290599808e-06,7.653935162963388e-06,7.694527649561527e-07,5.207589247457042e-06,9.941761290599808e-06,-0.30423076923076936,40.2092921569847,-231.45,181.59,0.6174365730607173,0.013989244255713929,0.5999701927930262,0.6479586877395179,0.049814143462033916,0.03268637651203573,0.01376296964065923,0.1282767935487934,0.02941959649309575,0.11930468601022792,1.0336831923751787e-07,0.8087777898836715,0.6356228041685082,0.02090705401029359,0.5951938608810383,0.6596703521058832,-0.1172466986108598,4.150995178237037,-5.29937744140625,13.42315673828125,33.877090909090875,0.01521634614756906,33.84,33.91,0.15384615384615385,-0.0005670995670995435,2,1
92,0.011738940335232798,0.002831125606228742,0.0041283211469350465,0.03027435507752368,0.011661100705563282,0.0031363329959921155,-0.006880531987530299,0.03027434074513332,8.023457641444017e-06,2.1579639502470404e-06,-4.7341720431427655e-06,2.083035698982817e-05,8.023457641444017e-06,2.1579639502470404e-06,-4.7341720431427655e-06,2.083035698982817e-05,0.5157853107344651,73.89131525904087,-464.57,299.26,0.6057499735575557,0.006876929314500954,0.5927506024232696,0.6177737574512817,0.020519980284685296,0.0081905036839603,0.009432282486712578,0.03822116086766306,0.016382671437510325,0.04299096344069591,7.538290136555048e-08,0.18986735531139176,0.6296232254257774,0.02032275492851784,0.5949701576170064,0.6588717511256413,0.1514919589857887,2.5478491487845503,-3.97491455078125,6.18438720703125,33.867857142857105,0.022096726140367246,33.84,33.89,0.13559322033898305,-0.0006753246753246379,2,1
93,0.011538128333741538,0.002960780046195725,0.005504428195913397,0.02683408745507781,0.011538122871396965,0.0029607786445125074,0.00550442559002424,0.02683407475136817,7.93884234927015e-06,2.0371732171564913e-06,3.7873376345142126e-06,1.8463270968256787e-05,7.93884234927015e-06,2.0371732171564913e-06,3.7873376345142126e-06,1.8463270968256787e-05,2.510192307692308,55.27698096619219,-138.49,220.4,0.5898612618739455,0.0034870461684398803,0.583532935183197,0.5977151998067822,0.02001568644614866,0.010884406415613921,0.004607245914640276,0.03954633516243025,0.017903622757135838,0.04403876191156793,7.30744780241821e-08,0.2339797762242193,0.5818364833364387,0.005584249612101452,0.5667474917634423,0.5939557286404507,-0.2006891286307808,1.8694808771059828,-3.08380126953125,4.28924560546875,33.85490909090909,0.02380777010463873,33.81,33.89,0.14479638009049775,-1.9480519480519192e-05,2,1
94,0.021770200316699344,0.009151253682936173,0.0,0.0571084425326015,0.021212898052958225,0.010377836670359878,-0.031650447142639385,0.05710841549650149,1.4595602360159827e-05,7.140503717177617e-06,-2.177719139845672e-05,3.9293627958084963e-05,1.4595602360159827e-05,7.140503717177617e-06,-2.177719139845672e-05,3.9293627958084963e-05,-0.2065497737556486,107.80631932497784,-228.24,308.25,0.5793423283042127,0.01285098374234727,0.5540883987282822,0.5977373715392964,0.08150237548643781,0.031512240629264984,0.016827182481554504,0.1173542243188795,0.0727934822989703,0.1686739397447022,4.8819640774411255e-08,0.7467228332214757,0.4884707408857271,0.04344954546575607,0.43702849423824736,0.5649140172122605,0.2937330305730405,2.690530513301728,-5.97381591796875,7.18536376953125,33.81254545454543,0.016648033661469167,33.79,33.84,0.11764705882352942,-0.0005295815295815538,2,1
95,0.013832677870160265,0.005356622782888125,0.0020641605734675237,0.03990710442037213,0.013673889814132726,0.005749862060163969,-0.0137610639750606,0.03990708552767574,9.408363626010413e-06,3.956210982884503e-06,-9.468344086285533e-06,2.745819785022804e-05,9.408363626010413e-06,3.956210982884503e-06,-9.468344086285533e-06,2.745819785022804e-05,-3.0419909502262463,76.93054955369419,-323.72,358.01,0.5699458758711679,0.02481951083411221,0.5527239792862826,0.6777271817299069,0.07347166755489554,0.0702758926261484,0.009297562072811535,0.3728383213310312,0.1028415428105044,0.2676443600941037,6.213693382051133e-08,1.274174149342076,0.4679706515217025,0.017600713144890336,0.43807497272920215,0.4949294166233644,-0.07306089964318258,2.6449524710974694,-5.39398193359375,9.39788818359375,33.781272727272714,0.012512473115697172,33.75,33.79,0.08144796380090498,-0.000329004329004283,2,1
96,0.012489025712003266,0.003266893598068239,0.0041283211469350465,0.02476992688161029,0.012489019799487834,0.0032668920514657,0.004128319192518179,0.024769915155109082,8.593110022327519e-06,2.24779552599182e-06,2.84050322588566e-06,1.7043019355313955e-05,8.593110022327519e-06,2.24779552599182e-06,2.84050322588566e-06,1.7043019355313955e-05,0.06558192090395612,103.56476787989864,-545.31,282.78,0.6700576866837962,0.020923616199152305,0.6342484732659182,0.7212731024260295,0.2832545373126895,0.06989090160441942,0.13966425249960668,0.4332001624034813,0.19212919876018333,0.3920140088180543,6.295464238803562e-08,2.373186590188884,0.5622375892073954,0.047374495002013024,0.4960405478154655,0.6478473720732844,0.35440450665771056,3.3641856335925064,-8.36639404296875,8.17718505859375,33.764285714285705,0.011780301787479762,33.75,33.79,0.13559322033898305,-0.0004593301435406912,2,1
97,0.013603845589391171,0.007054696961740772,0.0006880535244891746,0.04816374671424223,0.013336089940536687,0.007548632113953498,-0.0137610639750606,0.0481637239127121,9.175939342444356e-06,5.1938604722155454e-06,-9.468344086285533e-06,3.313920430199936e-05,9.175939342444356e-06,5.1938604722155454e-06,-9.468344086285533e-06,3.313920430199936e-05,-1.3709162895927554,88.0526248009758,-290.49,309.57,0.6677686792454787,0.012885925977255387,0.6489043741453929,0.7011041248850051,0.12902358639677114,0.061386425162341884,0.03178968738432572,0.242764568817216,0.06789207615896631,0.16167906187507153,6.827581788826367e-08,0.8601542168352445,0.7091599092976728,0.029336779762894068,0.6507924006603933,0.7522313149782757,0.8066793691654657,4.050982413372782,-5.6060791015625,14.32342529296875,33.74163636363637,0.01648841316182651,33.71,33.77,0.12669683257918554,-0.0006233766233766911,2,1
98,0.012970275941275554,0.0053758769989761855,0.0006880535244891746,0.03577878327343708,0.012954702986476751,0.005413279540687127,-0.00137610639750606,0.035778766335157565,8.913524828740735e-06,3.7246243037141128e-06,-9.468344086285532e-07,2.4617694624342375e-05,8.913524828740735e-06,3.7246243037141128e-06,-9.468344086285532e-07,2.4617694624342375e-05,3.2319457013574717,115.71891024306791,-526.63,279.58,0.6927332576617129,0.02260130367918927,0.645653373902191,0.7264566065948845,0.09553098600773624,0.03944261540121602,0.017345609015637985,0.1636941225660835,0.08456353064937466,0.1927203758955566,7.285869907391884e-08,0.7915838473939716,0.8190435191923673,0.04655771106699763,0.7536366978248341,0.9035569379872892,-1.431824904343123,2.7858028036265092,-7.15789794921875,4.75921630859375,33.68381818181821,0.02075755363856484,33.65,33.73,0.0995475113122172,-0.0010007215007215406,2,1
99,0.014833624513251946,0.007579546289866028,0.0006880535244891746,0.044035425567307176,0.014313685888086231,0.008520802293480683,-0.028898234347627262,0.04403540472019392,9.848577361243814e-06,5.862765273971542e-06,-1.9883522581199616e-05,3.0298701076113697e-05,9.848577361243814e-06,5.862765273971542e-06,-1.9883522581199616e-05,3.0298701076113697e-05,-0.6708144796380083,94.82127205168429,-302.13,314.1,0.7308065304224245,0.011100350787217906,0.7098949675166428,0.7551134931657595,0.09298738542333047,0.030521942521471977,0.044429621006473685,0.17015801935618935,0.06705570587472663,0.1890753657844682,8.15620375682613e-08,0.8729697629606358,0.9369856373367924,0.01044337292267802,0.9063657461029644,0.9454856664313378,0.6604955628053588,3.5348859851818846,-4.56390380859375,9.84954833984375,33.646000000000036,0.015794130094895418,33.63,33.68,0.06334841628959277,-0.0006702741702740767,2,1
100,0.012518838108465928,0.008098239548962941,0.0006880535244891746,0.08738279761012517,0.012207495892808305,0.00856035191576273,-0.02545796835386211,0.0873827562416348,8.399406597811203e-06,5.889977518092168e-06,-1.7516436559628233e-05,6.012398494791312e-05,8.399406597811203e-06,5.889977518092168e-06,-1.7516436559628233e-05,6.012398494791312e-05,-1.4181787330316724,97.13750171098343,-489.99,575.34,0.7444316529133337,0.033772638934690145,0.7161808835764104,0.8220393207822454,0.09831392808992524,0.08503376868299542,0.01830840235350082,0.29097502266340103,0.09297926780290296,0.2353687009607985,7.696301485005107e-08,1.3158462744343424,0.9732096841947712,0.021291146600219732,0.9458151474711812,1.0130664043142477,-0.5601398603693328,4.8909152478233535,-6.53228759765625,13.67340087890625,33.607499999999966,0.01854049621773859,33.57,33.65,0.1719457013574661,-0.0008181818181817697,2,1
101,0.011760733885782148,0.0018511071986794933,0.006880535244891746,0.029586301553034506,0.011760728318052376,0.0018511063223341168,0.006880531987530299,0.029586287546380288,8.092006738901297e-06,1.2736596263139515e-06,4.7341720431427655e-06,2.0356939785513888e-05,8.092006738901297e-06,1.2736596263139515e-06,4.7341720431427655e-06,2.0356939785513888e-05,1.4827118644067774,84.83812199214617,-649.86,467.92,0.7531546526909102,0.012925886900428759,0.7355378875836358,0.7907419592811092,0.09358188207199884,0.03546051820962714,0.04596999560309215,0.1917726169198304,0.05080042429722508,0.10961016147293301,7.315859518186585e-08,0.5384918784980361,1.0038516727065951,0.013991400307847795,0.98456436148342,1.0211865697760014,0.6109456611641191,2.2747675714816795,-3.77655029296875,7.07550048828125,33.584181818181804,0.009083633452217276,33.57,33.59,0.12655367231638415,-8.080808080809344e-05,2,1
102,0.012785030761605486,0.006773503405979105,0.00756858876938092,0.0488518002387314,0.01278502470895617,0.006773500199288352,0.00756858518628333,0.04885177711146513,8.796777147133767e-06,4.660528478874639e-06,5.207589247457042e-06,3.3612621506313634e-05,8.796777147133767e-06,4.660528478874639e-06,5.207589247457042e-06,3.3612621506313634e-05,0.03997737556561223,105.67538428444269,-579.93,332.32,0.8274725301634397,0.06311098221935699,0.7301879579571247,0.9308439851709732,0.21300942084384603,0.1561606243555559,0.012282316942536021,0.5449273619150417,0.17984780638106584,0.41354963668095895,7.146902442078941e-08,1.7857941465469436,1.1109061756598435,0.07064361740742321,0.9942044002611221,1.2075354210663396,-0.5029215461132186,4.275820199640977,-7.09686279296875,10.90850830078125,33.57145454545453,0.011972420096841385,33.55,33.59,0.08144796380090498,0.00012987012987015017,2,1
103,0.01065237617212544,0.0007897780681666103,0.0027522140979566985,0.018577445161207715,0.010652371129110796,0.0007897776942723591,0.00275221279501212,0.018577436366331808,7.329398029689046e-06,5.43409068847886e-07,1.8936688172571063e-06,1.2782264516485464e-05,7.329398029689046e-06,5.43409068847886e-07,1.8936688172571063e-06,1.2782264516485464e-05,0.013359728506787393,22.6592457411622,-84.46,70.11,0.902629962412936,0.042240361913493465,0.8377717319240657,0.9971515620874859,0.2589297335292537,0.10225602579621912,0.11962200259510475,0.5150940409850886,0.18980257591209326,0.43497571267463736,4.3768123347831533e-08,2.0069472902911887,1.2930382636679814,0.07158188922163346,1.208880548138926,1.4348192738999053,0.6080355272952803,2.409754792452953,-5.08575439453125,4.736328125,33.52199999999999,0.0221071769506473,33.49,33.57,0.11764705882352942,-0.001116883116883078,2,1
104,0.010597892295751796,0.0007021654796374666,0.008256642293870095,0.013761070489783492,0.010597887278530829,0.0007021651472204853,0.008256638385036359,0.0137610639750606,7.291910242017163e-06,4.831269755979467e-07,5.6810064517713185e-06,9.468344086285533e-06,7.291910242017163e-06,4.831269755979467e-07,5.6810064517713185e-06,9.468344086285533e-06,0.5013914027149344,43.82755295933561,-252.49,100.4,0.9456140691256946,0.029191341212382087,0.8966577389378478,1.012566933203709,0.2426153678784625,0.10897575310152202,0.09640585926465507,0.4455526413215435,0.22088400176316808,0.38221454183586856,2.991622771730817e-08,2.056870374659699,1.44031873712033,0.02904393559454372,1.3960450180056956,1.4763736684188589,0.050958392046225584,1.8184708682989768,-3.54461669921875,3.41949462890625,33.49000000000001,0.011338934190277249,33.47,33.5,0.12669683257918554,-4.37457279562611e-05,2,1
105,0.0102274019364115,0.0009473175318095252,0.00756858876938092,0.014449124014272669,0.010227397094586876,0.0009473170833334221,0.00756858518628333,0.014449117173813631,7.036993285847915e-06,6.518045494209604e-07,5.207589247457042e-06,9.941761290599808e-06,7.036993285847915e-06,6.518045494209604e-07,5.207589247457042e-06,9.941761290599808e-06,-0.908846153846154,19.28164242006487,-70.33,72.06,0.9685293570340924,0.036122631293736725,0.927410091728164,1.052853806652702,0.27983704433983425,0.1252333293459772,0.10680900997605183,0.5418923780467354,0.1827789494018944,0.33546645442228185,7.286788772375985e-08,2.0010449868594167,1.472195970618346,0.042784756082583135,1.398832198493971,1.5234312980516311,0.05056700530459945,2.0413014302623584,-4.07562255859375,4.18548583984375,33.45872727272731,0.018978892146472408,33.43,33.49,0.14479638009049775,-0.0006926406926406987,2,1
106,0.010289739502800894,0.0004904619012638443,0.008256642293870095,0.012384963440805143,0.010289734631464592,0.0004904616690709062,0.008256638385036359,0.012384957577554541,7.079884827498997e-06,3.3746372026998794e-07,5.6810064517713185e-06,8.521509677656977e-06,7.079884827498997e-06,3.3746372026998794e-07,5.6810064517713185e-06,8.521509677656977e-06,-0.10810169491525456,18.996812239596785,-72.08,59.18,0.9220518866801776,0.031915866233078564,0.8971086730833259,1.0229707108109187,0.07916665269539921,0.08702211748553236,0.013250772767219029,0.3571579224890176,0.09744705115407763,0.21631439553909834,9.043853288481783e-08,0.9528403345801608,1.5318308776109943,0.011801248901015148,1.52217621367091,1.5623325265170616,0.014142230723241988,3.978130611578413,-6.44073486328125,11.47308349609375,33.42527272727275,0.015238055883461988,33.41,33.45,0.1807909604519774,-0.000770562770562891,2,1
107,0.010372173379347021,0.0005804253959982771,0.0041283211469350465,0.012384963440805143,0.010372168468985131,0.0005804251212151005,0.004128319192518179,0.012384957577554541,7.136603693090501e-06,3.9936336128866773e-07,2.84050322588566e-06,8.521509677656977e-06,7.136603693090501e-06,3.9936336128866773e-07,2.84050322588566e-06,8.521509677656977e-06,-0.1350339366515836,45.60739159374578,-260.26,96.8,1.046298034302075,0.061609708407596074,0.9633284630265524,1.1573411297036005,0.34583553410090456,0.15886495595538858,0.14330776877801407,0.6632264018543298,0.247710577348542,0.4837377614490208,7.743747332256135e-08,2.569062002923048,1.6425142153599832,0.04742627431824177,1.5645381681216162,1.7194457430404075,0.17949791364772347,2.4557579646450955,-4.65850830078125,6.48651123046875,33.385714285714286,0.01347711590293828,33.37,33.41,0.12669683257918554,-0.0004483937115515909,2,1
108,0.010446894124087931,0.0005176266708506621,0.006880535244891746,0.012384963440805143,0.01044688917835199,0.0005176264257974628,0.006880531987530299,0.012384957577554541,7.188015516183458e-06,3.5615451802904407e-07,4.7341720431427655e-06,8.521509677656977e-06,7.188015516183458e-06,3.5615451802904407e-07,4.7341720431427655e-06,8.521509677656977e-06,0.9655203619909496,20.276300803567075,-92.24,67.21,1.0344198023320978,0.03206090568041081,0.9818329328459972,1.0827175707456256,0.16226875522362286,0.07107940930942573,0.035259846738895755,0.27241192403929393,0.11061851431703976,0.2515456655195075,8.897139935903908e-08,1.4188394950102303,1.790026776215199,0.043365871297526136,1.7217488238404484,1.8651732358899609,-0.048463655940602056,1.970181274530456,-4.42047119140625,3.91998291015625,33.37127272727269,0.01673912623488594,33.33,33.39,0.15384615384615385,-0.000647907647907643,2,1
109,0.010339483053522879,0.0004554565830610419,0.00756858876938092,0.012384963440805143,0.010339478158637136,0.0004554563674402132,0.00756858518628333,0.012384957577554541,7.114111020487352e-06,3.1337821050967337e-07,5.207589247457042e-06,8.521509677656977e-06,7.114111020487352e-06,3.1337821050967337e-07,5.207589247457042e-06,8.521509677656977e-06,-0.8602601809954782,65.79440695432072,-342.26,146.74,1.045995167017727,0.0337952267690362,1.0002498798176953,1.120444947669867,0.12907110924114826,0.0827501673270532,0.035437907620118884,0.31748492487306124,0.08424235320634217,0.2726556033956969,5.574794048612831e-08,1.797643413133626,1.858470114178544,0.02261325585615166,1.8146759497487488,1.882960213287412,0.03996821350154457,1.7914914998524023,-4.18701171875,3.81927490234375,33.34072727272725,0.008914655034276756,33.33,33.37,0.0995475113122172,0.00016017316017312216,2,1
110,0.010615015799754969,0.0015946603949979436,0.004816374671424223,0.018577445161207715,0.010615010774427412,0.0015946596400588126,0.00481637239127121,0.018577436366331808,7.303692118142613e-06,1.097210666264824e-06,3.313920430199936e-06,1.2782264516485464e-05,7.303692118142613e-06,1.097210666264824e-06,3.313920430199936e-06,1.2782264516485464e-05,0.5332126696832572,62.16342254189515,-276.13,222.31,1.0464588014267628,0.053532086743015184,0.9882372437551958,1.1542469910427953,0.17939280313455302,0.16026137355014725,0.009176042193956287,0.5016002483379176,0.14502014050368475,0.37636686768385,6.725699464027457e-08,2.0665562773319284,1.8095327030372599,0.00427321730122142,1.7949664084171986,1.8136389215648088,0.11399929506950547,2.101868091876005,-4.22210693359375,4.58831787109375,33.320181818181794,0.016458311974739605,33.29,33.34,0.0995475113122172,-0.0005317460317460597,2,1
111,0.01088587849944072,0.0007265771353201778,0.00756858876938092,0.013073016965294318,0.010885873345882228,0.0007265767913463022,0.00756858518628333,0.01307301077630757,7.490059976854582e-06,4.999234854255377e-07,5.207589247457042e-06,8.994926881971256e-06,7.490059976854582e-06,4.999234854255377e-07,5.207589247457042e-06,8.994926881971256e-06,0.11676836158192384,48.229973510367486,-201.46,208.57,0.9714298035115017,0.019299177083411185,0.9472581302644107,1.0067823908153777,0.06047291392809244,0.02433422440379921,0.021306858057154092,0.10177341505347093,0.048865381684873616,0.12256820947184392,7.209283636733232e-08,0.5340385672298937,1.7004414729641149,0.06155293467698154,1.6047007818703185,1.7930760521540663,-0.049330019406036735,2.3851120265409915,-4.31060791015625,5.25970458984375,33.28749999999998,0.020022308986298136,33.27,33.33,0.16271186440677968,-0.0010587833219411103,2,1
112,0.011066453632564595,0.0006528291532118227,0.009632749342848444,0.013761070489783492,0.011066448393518773,0.0006528288441514899,0.00963274478254242,0.0137610639750606,7.614305215995903e-06,4.491809744566766e-07,6.627840860399872e-06,9.468344086285533e-06,7.614305215995903e-06,4.491809744566766e-07,6.627840860399872e-06,9.468344086285533e-06,-1.4540045248868771,40.8195345035432,-130.0,95.37,1.0122410934206,0.034744449774589715,0.9486269446359821,1.101892590882431,0.192211974947612,0.1460890998337879,0.0304539050311852,0.5361904086574337,0.14704945737957592,0.3708387253716333,5.563176053158258e-08,1.6262608079449556,1.6927436630321733,0.06928268525658758,1.6024423520029083,1.7955811809797677,0.12954571490918404,2.2150227466759183,-3.96270751953125,5.61065673828125,33.24672727272728,0.018196357822832472,33.21,33.27,0.0904977375565611,-0.0009466089466089985,2,1
113,0.011536571651559451,0.0005659069664265987,0.009632749342848444,0.013761070489783492,0.011536566189951858,0.0005659066985166947,0.00963274478254242,0.0137610639750606,7.937771269622428e-06,3.893739141101778e-07,6.627840860399872e-06,9.468344086285533e-06,7.937771269622428e-06,3.893739141101778e-07,6.627840860399872e-06,9.468344086285533e-06,1.155045248868779,35.00877020530063,-151.26,139.7,1.0149028094001924,0.02219668706787113,0.9820023730936058,1.0720787760952752,0.1235933699570176,0.06982161183490099,0.03826710062367904,0.28810324534578785,0.12203805005113612,0.2464933959203421,4.5870433673655946e-08,1.1666593427944871,1.76968306222409,0.016263804212854473,1.7520345377228408,1.7965589732187648,0.12000593450295988,2.2768128986888483,-4.18548583984375,5.12847900390625,33.16509090909093,0.013601166697648,33.15,33.18,0.13574660633484165,-0.0007229437229437697,2,1
114,0.010926352236175413,0.0007204815537510728,0.009632749342848444,0.013761070489783492,0.010926347063455922,0.0007204812126629544,0.00963274478254242,0.0137610639750606,7.517908047696561e-06,4.9572940301421e-07,6.627840860399872e-06,9.468344086285533e-06,7.517908047696561e-06,4.9572940301421e-07,6.627840860399872e-06,9.468344086285533e-06,-0.13540723981900532,28.11676414866444,-93.95,59.81,1.0399934795811578,0.018367657794377698,1.0098008405502308,1.0734981143015816,0.15857785192987708,0.07817328577708058,0.035489088456141946,0.2782370199928267,0.09304207554781192,0.15427604780041004,1.0894848578857362e-07,0.6012308426755242,1.8103325463617927,0.026452817002171475,1.7641211180785508,1.8479731776389112,0.2481086043830298,3.4882851136250426,-5.13763427734375,8.39996337890625,33.110909090909054,0.0190952376045328,33.07,33.16,0.12669683257918554,-0.000853535353535359,2,1
115,0.010606585821075806,0.0005407033463580804,0.00894469581835927,0.012384963440805143,0.010606580799739165,0.0005407030903799961,0.008944691583789391,0.012384957577554541,7.297891847092985e-06,3.7203249091160545e-07,6.1544236560855945e-06,8.521509677656977e-06,7.297891847092985e-06,3.7203249091160545e-07,6.1544236560855945e-06,8.521509677656977e-06,-0.4456158192090393,19.236741128723825,-90.38,100.56,1.0274246266674385,0.015730850312995048,1.0040205054864844,1.063599836691824,0.09086899088881162,0.047124283504109764,0.03324385591901908,0.2023467232345537,0.07992262493706613,0.17702363372182467,1.0472127587313196e-07,1.0200311667450088,1.8404370781013,0.006940729045786014,1.831927061656675,1.8498358420718184,-0.33089877678756074,2.218640075666217,-4.72412109375,4.400634765625,33.04392857142856,0.024833630094560827,33.0,33.09,0.10847457627118644,-0.0013520164046479926,2,1
116,0.010759787242690451,0.0005818494019082034,0.00894469581835927,0.013073016965294318,0.010759782148825666,0.000581849126450882,0.008944691583789391,0.01307301077630757,7.403302525385208e-06,4.0034315264618544e-07,6.1544236560855945e-06,8.994926881971256e-06,7.403302525385208e-06,4.0034315264618544e-07,6.1544236560855945e-06,8.994926881971256e-06,0.4516628959276012,14.83580131781106,-51.71,41.74,1.0182839449041754,0.00837445454622277,0.9996650752500426,1.0362205921359169,0.0644865072179421,0.026117512170912374,0.01890288667869758,0.12257157530119255,0.044773534719719454,0.09722297730978,6.566509003214094e-08,0.4299850676851637,1.8387793734087967,0.0022177745078434635,1.8333976279956905,1.841448003410816,0.41025694443883454,2.7650580845541723,-3.6163330078125,7.60345458984375,32.99000000000001,0.00990867388613762,32.97,33.0,0.08144796380090498,-0.00043506493506493817,2,1
117,0.010429770620084792,0.0013029085790113952,0.0041283211469350465,0.015825231063251018,0.010429765682455438,0.0013029079621924955,0.004128319192518179,0.015825223571319692,7.1762336400580294e-06,8.964699910673388e-07,2.84050322588566e-06,1.088859569922836e-05,7.1762336400580294e-06,8.964699910673388e-07,2.84050322588566e-06,1.088859569922836e-05,-1.2885294117647061,25.645986130868522,-205.11,85.1,1.0569418252625142,0.02381626708683361,1.0228661834165793,1.1175190754008917,0.15399959806620395,0.07770530290499589,0.06906084530260735,0.3523559270034679,0.1522467676108722,0.3085939236427658,7.79320528110361e-08,1.2061070115803618,1.8667865889547453,0.023495733960708105,1.8381320376863448,1.9118645268092485,0.5056820442358275,3.1913181936124504,-5.70220947265625,7.91778564453125,32.94818181818186,0.019172983747584308,32.91,32.97,0.2081447963800905,-0.0008917748917748887,2,1
118,0.010459347581544726,0.0006826455170937602,0.008256642293870095,0.013073016965294318,0.010459342629913132,0.0006826451939178526,0.008256638385036359,0.01307301077630757,7.196584153365628e-06,4.6969620928856363e-07,5.6810064517713185e-06,8.994926881971256e-06,7.196584153365628e-06,4.6969620928856363e-07,5.6810064517713185e-06,8.994926881971256e-06,1.151142533936652,56.08552714105571,-170.08,95.67,1.0985005480242938,0.040024318193738855,1.0571007477071614,1.1831581347546574,0.190184955278264,0.14075583437646053,0.03805017489815887,0.4822124776617174,0.1218716948497974,0.3048049891427044,8.015817432038831e-08,1.6970670472391465,1.9565029015525919,0.024375700519733087,1.9136380148988643,1.997257599289268,-0.7475912034751933,2.6901177834577923,-6.37359619140625,6.005859375,32.891818181818145,0.017590380541741838,32.87,32.91,0.0995475113122172,-0.0007301587301587602,2,1
119,0.010815827801246158,0.000751456781996813,0.00894469581835927,0.013073016965294318,0.010815822680850802,0.0007514564262444978,0.008944691583789391,0.01307301077630757,7.441861392704909e-06,5.17041997801044e-07,6.1544236560855945e-06,8.994926881971256e-06,7.441861392704909e-06,5.17041997801044e-07,6.1544236560855945e-06,8.994926881971256e-06,-0.057138009049772724,38.938380086132064,-138.07,117.15,1.1057743110799054,0.022062826102130586,1.0808250681459384,1.152012349504845,0.14028384050500392,0.0577451219714653,0.06356101638629362,0.2639757115032217,0.09717227558698224,0.16811960618638294,7.706198390522445e-08,0.6963371093939998,2.0290230676270764,0.014726264032107328,1.9986985012134442,2.045644335031056,0.3424132530900247,2.663464818604727,-4.21600341796875,7.97576904296875,32.83607142857141,0.017079496001739726,32.81,32.87,0.11764705882352942,-0.0007771701982228225,2,1
120,0.010706860048499002,0.0006268386297905121,0.00894469581835927,0.013073016965294318,0.010706854979690813,0.0006268383330345316,0.008944691583789391,0.01307301077630757,7.366885817361017e-06,4.312981201454253e-07,6.1544236560855945e-06,8.994926881971256e-06,7.366885817361017e-06,4.312981201454253e-07,6.1544236560855945e-06,8.994926881971256e-06,0.03814689265536725,37.613930241393426,-154.66,108.35,1.0750623173720621,0.010397698893848102,1.0592119917900835,1.1021781536032125,0.04859388104153815,0.02429996947594223,0.010983098013714544,0.11593183783789952,0.03128987250865672,0.07901765828184877,1.2164187901397838e-07,0.4473172389586366,2.0272252840589524,0.011465620314648652,2.0132529105712766,2.0453452948099864,0.3220748506879363,2.907854086894159,-4.02984619140625,7.56683349609375,32.79036363636362,0.017264112684317944,32.77,32.83,0.08135593220338984,-0.0007546897546897117,2,1
121,0.010638366032486486,0.0007961877732089469,0.008256642293870095,0.013761070489783492,0.010638360996104523,0.0007961873962802255,0.008256638385036359,0.0137610639750606,7.319758312859164e-06,5.478192848174541e-07,5.6810064517713185e-06,9.468344086285533e-06,7.319758312859164e-06,5.478192848174541e-07,5.6810064517713185e-06,9.468344086285533e-06,-0.6128846153846147,50.96247504840288,-165.48,172.07,1.1108121339084651,0.04231790642721714,1.061791456520656,1.1835703957821002,0.12783405867683467,0.10317616962804284,0.01377875802257222,0.33863859629325704,0.11914372694501812,0.2527522803893556,6.642098071552027e-08,1.1237220019845662,2.0566273896860867,0.03324945295574558,2.014576460863643,2.121052495959556,0.01938044500996859,2.586442220910858,-4.30755615234375,7.17315673828125,32.75581818181818,0.016915932144893762,32.73,32.79,0.08144796380090498,-0.0007907647907648872,2,1
122,0.0108563015379808,0.0006580329615904653,0.00894469581835927,0.013073016965294318,0.01085629639842452,0.0006580326500665607,0.008944691583789391,0.01307301077630757,7.469709463546968e-06,4.527614697622303e-07,6.1544236560855945e-06,8.994926881971256e-06,7.469709463546968e-06,4.527614697622303e-07,6.1544236560855945e-06,8.994926881971256e-06,0.9583823529411779,40.26708564866113,-132.64,128.53,1.1360346122098284,0.015585587077880231,1.100868372355256,1.1672773398013856,0.11630164895909605,0.05234628738494957,0.028546968821233323,0.21054230608355687,0.08538351764682782,0.21368670316900845,6.704525223888425e-08,1.1848994916624649,2.1446888718755006,0.009188748421108024,2.1235414891036526,2.1555118119146885,-0.1052594532481937,2.2223050973867102,-4.6600341796875,4.12750244140625,32.702000000000034,0.028945089079466187,32.66,32.75,0.0904977375565611,-0.0014516594516594734,2,1
123,0.010611902435390744,0.00046270135741184484,0.009632749342848444,0.012384963440805143,0.010611897411537115,0.0004627011383612176,0.00963274478254242,0.012384957577554541,7.301549958847078e-06,3.183629983161047e-07,6.627840860399872e-06,8.521509677656977e-06,7.301549958847078e-06,3.183629983161047e-07,6.627840860399872e-06,8.521509677656977e-06,-0.2001018099547474,40.039744582809256,-167.49,160.26,1.1204818003001675,0.01134336229815992,1.09368413967135,1.1502049511182342,0.08357191014804154,0.034917007996747136,0.029783667637178206,0.1776078727458955,0.051103750026666166,0.12011754621882305,6.436405886045549e-08,0.6465617475309428,2.1301871409050763,0.018726477087916017,2.1139953712525297,2.1803784407463884,-0.11228414682241586,2.5425841286309847,-4.16107177734375,4.93927001953125,32.653571428571446,0.012309777099722993,32.63,32.68,0.07239819004524888,-0.00026794258373200025,2,1
124,0.01095437251545322,0.0005708355896579321,0.009632749342848444,0.012384963440805143,0.010954367329468508,0.0005708353194147361,0.00963274478254242,0.012384957577554541,7.5371874813565e-06,3.9276506748451633e-07,6.627840860399872e-06,8.521509677656977e-06,7.5371874813565e-06,3.9276506748451633e-07,6.627840860399872e-06,8.521509677656977e-06,0.31692307692307725,33.629007511204556,-97.95,121.1,1.165562538432008,0.038049786515903065,1.1120772360483628,1.238547140310691,0.14652210840753407,0.1019786278680331,0.03458537947253452,0.36884804570095,0.11049303922163883,0.2439112435535075,6.190938850458848e-08,1.236078099551806,2.2042702729966464,0.02184312980229204,2.158384071483042,2.2305144640321384,-0.013521959882477251,2.165505101665917,-4.89044189453125,3.61785888671875,32.63181818181822,0.008757523330029986,32.61,32.65,0.0995475113122172,-0.00012987012987014402,2,1
125,0.011213874597769407,0.0004921705592005527,0.009632749342848444,0.013761070489783492,0.011213869288932029,0.0004921703261987076,0.00963274478254242,0.0137610639750606,7.715738634648006e-06,3.3863936727234333e-07,6.627840860399872e-06,9.468344086285533e-06,7.715738634648006e-06,3.3863936727234333e-07,6.627840860399872e-06,9.468344086285533e-06,-1.0975819209039557,33.47356162612822,-143.18,114.21,1.1742217383278,0.04526546805345329,1.1151020522931718,1.258154742997118,0.14914734645300176,0.10409254051120237,0.042129222821736284,0.39021632877167056,0.11135929964328932,0.36313434024591695,1.4739219178494525e-07,2.2816652223838307,2.2276659693169862,0.060715260928069,2.152610790598709,2.3172412961475017,0.11432967240216195,1.9333441876461763,-3.436279296875,3.77044677734375,32.59763636363634,0.01451815620194625,32.57,32.63,0.09943502824858758,-0.0004458874458874392,2,1
126,0.042287271476806304,0.0014910780859481395,0.035090729748947905,0.04747569318975305,0.04228725145729869,0.0014910773800466235,0.03509071313640453,0.04747567071395907,2.909587863166825e-05,1.0259405609293634e-06,2.4144277420028103e-05,3.2665787097685084e-05,2.909587863166825e-05,1.0259405609293634e-06,2.4144277420028103e-05,3.2665787097685084e-05,-0.7495593220338991,52.97289253616048,-120.08,251.5,0.1788786634994739,0.015182974816518454,0.1600177579460436,0.2220875706514828,0.03407879066076235,0.021778177907711155,0.008616812796594533,0.11226710577878801,0.019555865675769814,0.051756199286867526,5.554883619751649e-08,0.2608650398480481,-0.6803035542338812,0.02881826331290405,-0.7154826415873601,-0.6382092049446294,-0.01485199321758661,1.4323807605623031,-2.459716796875,2.960205078125,34.409636363636395,0.023661525069087086,34.37,34.47,0.2169491525423729,-0.0004372294372294948,2,2
127,0.043036035606397606,0.001279092699658302,0.034402676224458736,0.05366817491015562,0.04303601523241207,0.0012790920941142586,0.0344026599376515,0.05366814950273634,2.9611067942245564e-05,8.800834068550259e-07,2.367086021571383e-05,3.692654193651357e-05,2.9611067942245564e-05,8.800834068550259e-07,2.367086021571383e-05,3.692654193651357e-05,0.059083710407241675,41.42574276373243,-126.1,252.96,0.19615165372562887,0.017745233580179442,0.17010807626654526,0.22483204294202694,0.04271250304639383,0.01896126222964352,0.01803988769403879,0.07946289948730502,0.027671089699567084,0.07141085075561468,1.0099196479096406e-07,0.3096585615424832,-0.6369536187760899,0.05445113888315819,-0.7138337937681214,-0.5514357067742275,0.1046378047226405,2.188290979653182,-3.20892333984375,4.02069091796875,34.38781818181817,0.015572809531174391,34.37,34.43,0.12669683257918554,-0.0003131313131313441,2,2
128,0.043370722275549535,0.00021333362391637759,0.04197126499383968,0.04472347909179635,0.04337070174311773,0.00021333352292064305,0.04197124512393483,0.04472345791894695,2.9841350066516137e-05,1.4678481284680081e-07,2.887844946317087e-05,3.077211828042797e-05,2.9841350066516137e-05,1.4678481284680081e-07,2.887844946317087e-05,3.077211828042797e-05,0.6415837104072395,15.620052425115414,-38.5,36.89,0.21833754857484766,0.0071775797272151075,0.20945088321357905,0.2360913645441297,0.02491400596107104,0.02237983959514217,0.003350905284903933,0.07793256904448871,0.02062073995029283,0.08350075168317461,9.159466440866736e-08,0.6015516644576524,-0.5517919531790578,0.004526523808347971,-0.5578560513546373,-0.5450041880439144,0.06981065608318361,1.9447823618182165,-3.04107666015625,3.82843017578125,34.38345454545449,0.0192795871153614,34.34,34.41,0.14479638009049775,-0.0008470418470418691,2,2
129,0.043389402461734734,0.0008365352816429311,0.03715489032241543,0.04816374671424223,0.04338938192045942,0.0008365348856130199,0.037154872732663616,0.0481637239127121,2.9854203022289392e-05,5.755805039145324e-07,2.556452903297093e-05,3.313920430199936e-05,2.9854203022289392e-05,5.755805039145324e-07,2.556452903297093e-05,3.313920430199936e-05,-0.1730316742081465,30.45551242696536,-98.84,133.41,0.22131016165330653,0.006328630134353346,0.21137105581623586,0.23478670604331145,0.02373385299211961,0.014958249047791984,0.005207753647241311,0.05614961141736706,0.01543295180272904,0.05115275691672802,6.448440889594842e-08,0.2650527429756403,-0.5417298675973566,0.0044356589446284045,-0.5506222123456209,-0.536434967810943,0.14099408221501175,1.6167973070315502,-2.66876220703125,3.15093994140625,34.366428571428536,0.02255379057692228,34.34,34.41,0.14479638009049775,-0.0010553656869445253,2,2
130,0.04333958863190748,0.00012651335282558846,0.04197126499383968,0.04472347909179635,0.04333956811421484,0.00012651329293203402,0.04197124512393483,0.04472345791894695,2.9819928473560754e-05,8.704787588666396e-08,2.887844946317087e-05,3.077211828042797e-05,2.9819928473560754e-05,8.704787588666396e-08,2.887844946317087e-05,3.077211828042797e-05,-0.14121040723981915,14.954209020416865,-32.56,24.02,0.2030163392991064,0.004855306964386953,0.1945118497162983,0.21228253527300966,0.0021534934008254234,0.0016830687976657414,0.00025115245952398357,0.005755872539298964,0.0011025461860241902,0.008094805229367213,8.834444348293502e-08,0.06058696781279509,-0.5753428070371582,0.014104147144452716,-0.5987595410791778,-0.5514500054121969,-0.008786859907762255,1.7561683331870626,-2.65350341796875,3.21197509765625,34.348727272727245,0.017792188833053387,34.33,34.39,0.13574660633484165,-0.0008138528138527472,2,2
131,0.04319050205190735,0.0012196514955843973,0.037842943846904606,0.05022790728770975,0.043190481604795015,0.0012196509181808073,0.03784292593141665,0.050227883508971186,2.9717349023863173e-05,8.391847156163729e-07,2.603794623728521e-05,3.4559455914942184e-05,2.9717349023863173e-05,8.391847156163729e-07,2.603794623728521e-05,3.4559455914942184e-05,0.4810395480225983,31.885457908551093,-83.38,130.5,0.1949699351512415,0.005575303113588857,0.18368972283545384,0.20686745407090895,0.01541395809558256,0.013198215138963338,0.00013460593692667352,0.0440966977041422,0.013959206020864702,0.04316523519031355,5.449842907512269e-08,0.2420829719618614,-0.6133080173952997,0.006246290398775926,-0.6220163318600163,-0.5995342446190619,0.07971036767022686,2.0452123889922325,-3.96881103515625,4.67071533203125,34.326545454545425,0.013103529270347277,34.31,34.34,0.054237288135593226,-0.00015079365079365617,2,2
132,0.04299711855184503,0.001924654175961885,0.029586301553034506,0.05504428195913397,0.04299709819628378,0.0019246532647981328,0.029586287546380288,0.0550442559002424,2.9584290951051178e-05,1.3242638353348164e-06,2.0356939785513888e-05,3.787337634514213e-05,2.9584290951051178e-05,1.3242638353348164e-06,2.0356939785513888e-05,3.787337634514213e-05,0.4865610859728509,38.116933653696414,-115.07,104.1,0.1922664770798321,0.009348419998121244,0.17567473704030032,0.21609915709665864,0.04809423055091186,0.041188262101964135,0.008968310372283591,0.14147761171486772,0.048109634793686185,0.14976005711509635,7.28826501372737e-08,0.9792138509190372,-0.6539769377549753,0.0208609641980884,-0.6815516783982889,-0.6224784564929227,0.2808282945252727,3.2438054995107857,-8.93402099609375,8.18328857421875,34.30214285714283,0.02160640494607621,34.27,34.33,0.13574660633484165,-0.001036226930963699,2,2
