Unnamed: 0,net_acc_mean,net_acc_std,net_acc_min,net_acc_max,ACC_x_mean,ACC_x_std,ACC_x_min,ACC_x_max,ACC_y_mean,ACC_y_std,ACC_y_min,ACC_y_max,ACC_z_mean,ACC_z_std,ACC_z_min,ACC_z_max,BVP_mean,BVP_std,BVP_min,BVP_max,EDA_mean,EDA_std,EDA_min,EDA_max,EDA_phasic_mean,EDA_phasic_std,EDA_phasic_min,EDA_phasic_max,EDA_smna_mean,EDA_smna_std,EDA_smna_min,EDA_smna_max,EDA_tonic_mean,EDA_tonic_std,EDA_tonic_min,EDA_tonic_max,Resp_mean,Resp_std,Resp_min,Resp_max,TEMP_mean,TEMP_std,TEMP_min,TEMP_max,BVP_peak_freq,TEMP_slope,subject,label
0,0.02993655504400749,0.009942306572155358,0.0,0.08738279761012517,0.02951001015556835,0.011144736262120584,-0.02408186195635605,0.0873827562416348,2.0304456882773216e-05,7.668171434410955e-06,-1.656960215099968e-05,6.012398494791312e-05,2.0304456882773216e-05,7.668171434410955e-06,-1.656960215099968e-05,6.012398494791312e-05,-0.1816732617297902,107.648359232624,-358.13,554.77,1.3979684884184065,0.1414808818605863,1.1092986624802572,1.6783994645961535,1.824289000580248,1.0883282078833296,0.36797708316668265,4.319986715502379,1.2843758526243385,1.952822653090264,5.2296570629550836e-08,11.71259626503334,1.2321641222705626,0.9974872106402064,-0.5991635447640467,2.5547503021729274,0.1481839773616847,2.9356168122316832,-8.80584716796875,6.50482177734375,35.817090909090865,0.012673914122067007,35.79,35.84,0.13566986998304126,-0.00016905980208731805,2,0
1,0.021985800798920527,0.015844527207486945,0.0,0.07155756654687416,0.017351549728282036,0.020817000404665786,-0.03784292593141665,0.07155753267031513,1.1938789293866693e-05,1.4323203716873377e-05,-2.603794623728521e-05,4.9235389248684756e-05,1.1938789293866693e-05,1.4323203716873377e-05,-2.603794623728521e-05,4.9235389248684756e-05,-0.8301470588235291,118.74208943778429,-392.28,438.16,1.2101317674035459,0.09188242918526912,1.014137872636249,1.4857995814446938,2.1091462266179968,1.2235284466465082,0.5391497246188794,4.459366787884756,1.4678647136924163,2.85250996438854,3.096901934895868e-08,17.41882122027924,0.3776152040086333,1.1722207931741842,-1.213172941862477,1.871490021412816,0.037544840944963936,2.843123179252524,-8.16802978515625,6.74285888671875,35.79756756756755,0.02990122526689475,35.75,35.87,0.09502262443438916,-0.00078869778869776,2,0
2,0.02083908098351165,0.011034364039104204,0.0027522140979566985,0.05435622843464479,0.02083907111793924,0.011034358815250151,0.00275221279501212,0.054356202701489366,1.4338389541739914e-05,7.592225879021561e-06,1.8936688172571063e-06,3.739995914082785e-05,1.4338389541739914e-05,7.592225879021561e-06,1.8936688172571063e-06,3.739995914082785e-05,0.9396834369700432,42.19003939297985,-240.61,209.89,1.010977164701999,0.10231487191145876,0.8322161167473114,1.1909666436032378,0.15282782125391414,0.1288955556739318,0.006950363560282765,0.5443458456701337,0.10509126382122967,0.2448912309529148,4.7256021318275985e-08,1.3008099949767329,1.7276955866016719,0.29338901424114666,1.137304257172579,2.037179172222012,-0.02186248938661716,1.7003326185446763,-2.9144287109375,3.26080322265625,35.712909090909065,0.027612429827737726,35.66,35.75,0.07687959299039004,-0.0007169938913058143,2,0
3,0.034448598348830635,0.003185086154101571,0.013761070489783492,0.040595157944861314,0.03444858204028276,0.0031850846462280237,0.0137610639750606,0.04059513872642877,2.37024570653228e-05,2.1915076791363563e-06,9.468344086285533e-06,2.793161505454232e-05,2.37024570653228e-05,2.1915076791363563e-06,9.468344086285533e-06,2.793161505454232e-05,0.10740384615384742,41.60687173752203,-289.26,145.36,0.7751874460203966,0.0463910931433055,0.6939961352625407,0.8768194179289382,0.17759469980574566,0.12616665142253722,0.0027887371005067443,0.36138758353877976,0.11078621939057604,0.1997043206555356,2.7872847141452443e-08,1.105898008119306,0.9879268772119216,0.04238829970702965,0.9124406813491884,1.1276021627961088,0.09756253422992167,1.483260353880956,-2.81829833984375,3.73077392578125,35.70081081081082,0.01950445248937228,35.66,35.73,0.14027149321266968,7.528957528957787e-05,2,0
4,0.028870227749267518,0.0043787784681770464,0.013761070489783492,0.03853099737139378,0.02887021408161455,0.00437877639518952,0.0137610639750606,0.03853097913016968,1.9864243147539746e-05,3.01283110533438e-06,9.468344086285533e-06,2.651136344159949e-05,1.9864243147539746e-05,3.01283110533438e-06,9.468344086285533e-06,2.651136344159949e-05,-0.07361990950226238,43.121633241472786,-197.37,194.12,0.6574939813318502,0.034539586362727866,0.594666882768196,0.7181063761815458,0.035014435272065145,0.039616218775044405,0.0011442516256320798,0.1327805343565842,0.026715864499287187,0.1147377919591749,5.174644446270804e-08,0.997036505624208,0.7722615972479132,0.07762841682534738,0.6156849313922336,0.90783251850008,0.06254517838548397,1.5015851820283452,-3.24249267578125,2.91290283203125,35.744727272727275,0.019386456889897662,35.71,35.79,0.14932126696832582,0.0004417194508938031,2,0
5,0.027908198160728426,0.008752466576093987,0.0,0.06605313835096077,0.02788483472683941,0.008826572268456302,-0.00275221279501212,0.06605310708029087,1.9186249730501397e-05,6.073151283336163e-06,-1.8936688172571063e-06,4.544805161417056e-05,1.9186249730501397e-05,6.073151283336163e-06,-1.8936688172571063e-06,4.544805161417056e-05,0.2639853024307515,71.15496421548033,-367.11,363.29,0.5404595921131684,0.03005281736839611,0.4864942002203283,0.5933789751944026,0.03326633222474052,0.051870818176314,1.4827831753488775e-05,0.19528273424588305,0.0392009197277356,0.11219155530584857,3.2976926522820804e-08,0.6012619534803973,0.4186480320806781,0.12864765300443895,0.1122697804933866,0.6123476276939752,0.053955936441745934,1.6758803859931268,-3.192138671875,3.45001220703125,35.805855855855825,0.022479959782772715,35.75,35.84,0.08592425098925946,0.0005208845208845139,2,0
6,0.033222711130425124,0.009514217110036442,0.0,0.07499783416932004,0.0326046928685118,0.011454332553616015,-0.03096239394388635,0.07499779866408028,2.2433763222539632e-05,7.881190153096483e-06,-2.1303774194142445e-05,5.160247527025615e-05,2.2433763222539632e-05,7.881190153096483e-06,-2.1303774194142445e-05,5.160247527025615e-05,0.7257070135746614,112.44642905034529,-670.2,361.86,0.502869406553813,0.01859144507935768,0.4743745567389848,0.5689634790783594,0.37430955707652297,0.14789909342132193,0.1309373334915774,0.6698364603335911,0.2814231976380919,0.5932838764659567,3.2841318997611786e-08,3.622407094081217,-0.036692750475298255,0.1291304736314762,-0.20270020156079727,0.21678161382518474,0.046343897579991085,2.1945393894575176,-6.646728515625,5.21697998046875,35.84709090909089,0.018942278568201014,35.81,35.89,0.11764705882352942,0.00023767554042784746,2,0
7,0.033314229971029216,0.005211669697423763,0.004816374671424223,0.04472347909179635,0.033314214199511166,0.005211667230131362,0.00481637239127121,0.04472345791894695,2.292195164391734e-05,3.585904308528209e-06,3.313920430199936e-06,3.077211828042797e-05,2.292195164391734e-05,3.585904308528209e-06,3.313920430199936e-06,3.077211828042797e-05,-1.0836743923120429,39.30585427347404,-182.86,182.92,0.506633285618332,0.017300961607875073,0.4701519730405613,0.5517079848832236,0.0737595462781934,0.059750181193689626,0.0013878393348570868,0.210346202465805,0.053613883073238916,0.17619555582335686,4.984947258451777e-08,1.4828810907493841,0.27527624162043485,0.024120167481513712,0.22168506382022007,0.31263141090766,0.07879024281174872,1.4989302452856432,-2.9449462890625,3.19366455078125,35.81450450450447,0.019670196907406016,35.77,35.84,0.1492368569813454,-0.0005075465075465243,2,0
8,0.03699610873984105,0.0014349604095939973,0.027522140979566984,0.043347372042818,0.03699609122525943,0.0014349597302595195,0.0275221279501212,0.04334735152144089,2.5455278908898817e-05,9.87328632486862e-07,1.8936688172571066e-05,2.9825283871799426e-05,2.5455278908898817e-05,9.87328632486862e-07,1.8936688172571066e-05,2.9825283871799426e-05,0.03632352941176417,24.483058558788482,-120.43,139.13,0.4889435962874088,0.017555040059839478,0.4564315730515574,0.5179903104042501,0.006364914939926006,0.012294712157721491,1.421127555742128e-05,0.0634146893150826,0.0007602886099855367,0.004402871272131685,9.451366600465859e-08,0.04036608783886092,0.2889830169102569,0.04713881424810122,0.19728690234905802,0.3442429172221761,0.002717582285311757,1.3436913900759562,-2.777099609375,2.48870849609375,35.78418181818179,0.010564246579150494,35.77,35.81,0.15384615384615385,-5.770574577900579e-06,2,0
9,0.03704592256966869,0.0011131703562196576,0.03371462269996956,0.043347372042818,0.03704590503150367,0.0011131698292260212,0.03371460673889847,0.04334735152144089,2.548955345762712e-05,7.65920061754336e-07,2.319744301139956e-05,2.9825283871799426e-05,2.548955345762712e-05,7.65920061754336e-07,2.319744301139956e-05,2.9825283871799426e-05,0.06738835500282635,16.889657960836004,-39.38,77.19,0.4239220821852046,0.017095621839545518,0.3955345289647858,0.4562918452557773,0.002718225161543561,0.004441270946153624,6.819167828716883e-07,0.016737013785695438,0.0024991470120854487,0.013326580402604205,8.373381165764366e-08,0.11808383076499945,0.09507966567340216,0.05444402752458402,0.008597810783057658,0.19544212537246752,0.11317671522484266,1.4807783750036894,-2.75421142578125,3.02886962890625,35.813423423423416,0.018281852149329127,35.79,35.84,0.1537591859807801,0.0004933309933310232,2,0
10,0.032531544241572036,0.012735960239623341,0.0,0.07018145949789581,0.03237741737752095,0.013122794759973357,-0.006192478788777271,0.07018142627280906,2.227738559396516e-05,9.029180911179178e-06,-4.260754838828489e-06,4.8288554840056206e-05,2.227738559396516e-05,9.029180911179178e-06,-4.260754838828489e-06,4.8288554840056206e-05,-0.38360294117646815,77.38712148983588,-596.97,368.75,0.3761661751767667,0.008785377737088346,0.3614713664628581,0.39550396767918455,0.02465482579905872,0.02688954065282608,6.996313584973643e-05,0.11040037121694243,0.02666854350577561,0.07936218958023936,3.4712853480556305e-08,0.5158293784750486,-0.07193148977203545,0.03901718756431772,-0.1281850557880469,0.006874694171344621,-0.026089752389755774,1.4722538670153416,-3.240966796875,3.20587158203125,35.872909090909026,0.026878360831562285,35.83,35.91,0.14932126696832582,0.0007123052994612355,2,0
11,0.032652965451775866,0.012632326952634129,0.0,0.0626128707285149,0.03248638507868104,0.01305471029674663,-0.008944691583789391,0.06261284108652572,2.2352361169309326e-05,8.982335178470594e-06,-6.1544236560855945e-06,4.308096559259917e-05,2.2352361169309326e-05,8.982335178470594e-06,-6.1544236560855945e-06,4.308096559259917e-05,-0.15675339366515573,90.26158769621463,-449.14,338.57,0.3534412876047172,0.013722298952503629,0.33800492133647986,0.3892098000433985,0.043469387780109794,0.029751614611469024,0.007048824063579252,0.12320395872617824,0.02605627789137436,0.08161297986162068,4.094252747943728e-08,0.5722274379884067,-0.15967225117330014,0.011498531578584966,-0.16984153391509102,-0.12909309025263516,0.1228960841171548,1.4670606752436743,-2.51007080078125,2.88238525390625,35.888558558558515,0.013072689835832063,35.87,35.91,0.09502262443438916,-0.00021411021411022426,2,0
12,0.03515525906254409,0.009346076686277498,0.0,0.06123676367953655,0.03498731079128143,0.009956315577831618,-0.006880531987530299,0.061236734689019676,2.4073131105707848e-05,6.850474781121691e-06,-4.7341720431427655e-06,4.2134131183970615e-05,2.4073131105707848e-05,6.850474781121691e-06,-4.7341720431427655e-06,4.2134131183970615e-05,0.6561107970604896,85.54834522239216,-400.42,421.48,0.3174398118944547,0.01814573385506129,0.2868168646781455,0.3568084859483367,0.029223885512630755,0.02514648686938908,0.0023698396670571416,0.09708551379343587,0.022483361219296536,0.10320866671058007,4.831964695029002e-08,0.8351373018287732,-0.2550337500542572,0.054459663979388825,-0.3299840153000498,-0.1703482106389121,0.03446804405972107,1.4910947760944808,-2.87322998046875,3.22418212890625,35.844234234234186,0.024293607565730898,35.79,35.89,0.06331260599208592,-0.0006060021060021162,2,0
13,0.03541451964282532,0.010770144824117782,0.0006880535244891746,0.05986065663055819,0.0353693591150852,0.01091747954045842,-0.006192478788777271,0.05986062829151361,2.4336000676978746e-05,7.511806720133211e-06,-4.260754838828489e-06,4.1187296775342064e-05,2.4336000676978746e-05,7.511806720133211e-06,-4.260754838828489e-06,4.1187296775342064e-05,0.0592307692307707,78.71410542780552,-428.17,285.6,0.27647639765733883,0.015354349252197906,0.254280746425988,0.3114652922928663,0.03508599280572191,0.0319828527863299,0.0009432021972993783,0.10383133735330914,0.02636808842660952,0.09787038164150973,4.2224260754508685e-08,0.7705594344188754,-0.3851950492022583,0.029022319623463768,-0.41633987683323137,-0.3304906820708716,0.042871422561047534,1.4674600086985323,-3.08990478515625,2.95257568359375,35.79472727272724,0.014251576685283773,35.77,35.83,0.06334841628959277,-0.0002495773504947779,2,0
14,0.035979595274928056,0.00962236683064938,0.0,0.05435622843464479,0.035939104524007365,0.009772444536084477,-0.006880531987530299,0.054356202701489366,2.472801582806281e-05,6.723961722689458e-06,-4.7341720431427655e-06,3.739995914082785e-05,2.472801582806281e-05,6.723961722689458e-06,-4.7341720431427655e-06,3.739995914082785e-05,1.857897117015264,93.86292676505936,-727.64,595.6,0.2413643813981577,0.009597120600196324,0.22500894581806474,0.2617580893359861,0.014627424375594613,0.018005964807274625,4.3484398407621054e-05,0.0635584278521064,0.014953812998553256,0.0787025911375324,5.048273732377595e-08,0.6177148725378334,-0.4716513785462026,0.031755344485884886,-0.5186684843723478,-0.4170137280529369,0.013884930043146069,1.4811190687897289,-2.72369384765625,2.70843505859375,35.75756756756756,0.011086573018318209,35.75,35.79,0.1492368569813454,1.2460512460526253e-05,2,0
15,0.039474346773747886,0.0015044445399304488,0.03027435507752368,0.05298012138566645,0.03947432808592608,0.001504443827701042,0.03027434074513332,0.05298009630398332,2.716043770814776e-05,1.0351373879939432e-06,2.083035698982817e-05,3.64531247321993e-05,2.716043770814776e-05,1.0351373879939432e-06,2.083035698982817e-05,3.64531247321993e-05,-2.0777092760181017,64.05357256004592,-335.37,351.65,0.2117124809024216,0.009703592911034831,0.1980245217839082,0.2424884578466826,0.005480641452111355,0.011270269819870008,1.4904675891705082e-05,0.056215258029004365,0.0004359121550133898,0.002802863769460159,5.4785573411209036e-08,0.02721504308311921,-0.5520984754590442,0.021461647332389488,-0.588027101775721,-0.5191664018555087,0.06942267798056044,1.36113133644492,-2.4658203125,2.69775390625,35.77072727272726,0.016387860857081396,35.75,35.79,0.06787330316742082,0.00042576020557670737,2,0
16,0.03858852953050322,0.00029602201738402944,0.036466836797926255,0.03990710442037213,0.038588511262042685,0.00029602187724220985,0.03646681953391059,0.03990708552767574,2.655094860896597e-05,2.0367879953738112e-07,2.5091111828656657e-05,2.745819785022804e-05,2.655094860896597e-05,2.0367879953738112e-07,2.5091111828656657e-05,2.745819785022804e-05,-0.02700960994912348,13.792958999628198,-34.68,37.36,0.1875241819584305,0.005582010191015382,0.17731908115399148,0.19774625937860227,0.001070541629602613,0.0016749033033495776,3.4805112749332893e-06,0.005367658868958833,0.0008513643776831284,0.0043275408912232145,7.400679931135771e-08,0.03527805229213344,-0.6214822233859784,0.01785857542883915,-0.6507919217421523,-0.5886179925834639,0.06339118838396526,1.3872161277611474,-2.459716796875,2.44903564453125,35.82765765765764,0.024085244817871512,35.77,35.87,0.1537591859807801,0.0005999473499473285,2,0
17,0.035192692431875665,0.010761174558635088,0.0,0.05504428195913397,0.035170882230829606,0.010832185341266471,-0.00481637239127121,0.0550442559002424,2.419943802188826e-05,7.453119773544092e-06,-3.313920430199936e-06,3.787337634514213e-05,2.419943802188826e-05,7.453119773544092e-06,-3.313920430199936e-06,3.787337634514213e-05,-0.9814479638009036,75.72889801462674,-409.52,347.37,0.17303039109729662,0.006217793122105529,0.16453634055355246,0.19081954300062856,0.01359631108014393,0.016144276226615743,0.0001250961213114001,0.051969077400547764,0.01537177157258092,0.066728050267268,4.878782289274852e-08,0.4129655662508148,-0.6776922732720825,0.012361288031112182,-0.6939015622907352,-0.6513626244447039,0.06370335376665741,1.4747923627240211,-2.81219482421875,2.84423828125,35.895272727272676,0.02585656557764358,35.84,35.93,0.05429864253393665,0.0006030250433919765,2,0
18,0.03527675326970912,0.007897961823106833,0.0,0.0571084425326015,0.03526428311753834,0.007953377965971595,-0.0034402659937651497,0.05710841549650149,2.4263702800754904e-05,5.47234715037867e-06,-2.3670860215713828e-06,3.9293627958084963e-05,2.4263702800754904e-05,5.47234715037867e-06,-2.3670860215713828e-06,3.9293627958084963e-05,0.9487669683257908,74.46224302845074,-351.18,402.66,0.16231954351764746,0.00796747336025052,0.15362961158579436,0.18141780674696656,0.010703135417045465,0.017234819310561717,4.0343827674524e-05,0.054985584373685135,0.003409573991818267,0.01669461642305553,1.1088234563860765e-07,0.12179791741703673,-0.7078048409953542,0.008052616280809928,-0.7240808029155881,-0.6942090698160025,0.031364964322122345,1.4965150812584544,-2.83050537109375,3.05023193359375,35.901531531531475,0.014593482328875971,35.87,35.93,0.11764705882352942,-0.00026956826956824455,2,0
19,0.03702179399584566,0.0027652130196631052,0.01513717753876184,0.04128321146935048,0.03702177646910428,0.002765211710564611,0.01513717037256666,0.0412831919251818,2.547295172308696e-05,1.9026127626833118e-06,1.0415178494914083e-05,2.8405032258856597e-05,2.547295172308696e-05,1.9026127626833118e-06,1.0415178494914083e-05,2.8405032258856597e-05,0.06908988128886376,34.65489073747606,-116.17,380.05,0.1486227644395473,0.0038389601430663662,0.14213966030426178,0.1654030760019093,0.005015826110514988,0.009883142057859408,3.340663064775416e-06,0.03712529138857275,0.004976875409622941,0.036469003966959686,3.626094247088929e-08,0.3759758972194029,-0.7433763485381352,0.010400515206277912,-0.7552844847638849,-0.7244228262294191,0.07335358510175921,1.3086420318469147,-2.35748291015625,2.55584716796875,35.90036363636359,0.014704808905887157,35.89,35.95,0.14471452798191067,0.00023488041836664298,2,0
20,0.03727708987371061,0.00026295836480863587,0.03715489032241543,0.037842943846904606,0.03727707222610771,0.0002629582403197142,0.037154872732663616,0.03784292593141665,2.564860878532125e-05,1.8092925839044693e-07,2.556452903297093e-05,2.603794623728521e-05,2.564860878532125e-05,1.8092925839044693e-07,2.556452903297093e-05,2.603794623728521e-05,-0.2148076923076924,19.23387589878116,-38.32,34.55,0.14544184284132866,0.0021076200116378627,0.14102724100498598,0.149701530857227,0.00252813459954758,0.004573036242677319,2.8161290076024863e-07,0.01631542223080692,0.0007581191419456094,0.004484825308154699,7.604612015956174e-08,0.037085067328765466,-0.7507199059055989,0.0038877198974486046,-0.7568364396031781,-0.7449105675593443,0.07763381261450363,1.40502877278731,-2.5787353515625,2.38189697265625,35.92513513513507,0.012653729633212384,35.91,35.95,0.14479638009049775,-0.00013513513513515622,2,0
21,0.035484902785011235,0.004012576906395417,0.02339381983263193,0.04747569318975305,0.03548488598585972,0.004012575006773802,0.023393808757603017,0.04747567071395907,2.4415489309957308e-05,2.7608650686471764e-06,1.6096184946685408e-05,3.2665787097685084e-05,2.4415489309957308e-05,2.7608650686471764e-06,1.6096184946685408e-05,3.2665787097685084e-05,0.08487280949689084,38.49426764308243,-314.16,225.36,0.13402306097082242,0.006210066746916986,0.12543020594307994,0.14350499792844726,0.010298724632033072,0.008901259094850796,2.8136414035212113e-07,0.03542963984004155,0.007940845195431907,0.02573579900109041,4.23750475819773e-08,0.1845907131918013,-0.7933648209591172,0.017411459321182723,-0.8093188566206965,-0.7571035256944082,0.028255465210522662,1.3991220571702645,-2.984619140625,2.47802734375,35.901636363636314,0.01247012959962215,35.89,35.93,0.14471452798191067,-9.23291932466148e-05,2,0
22,0.03493583987182878,0.0035117703771790285,0.018577445161207715,0.0488518002387314,0.03493582333261293,0.0035117687146477045,0.018577436366331808,0.04885177711146513,2.403770499507479e-05,2.416283697394177e-06,1.2782264516485464e-05,3.3612621506313634e-05,2.403770499507479e-05,2.416283697394177e-06,1.2782264516485464e-05,3.3612621506313634e-05,0.424819004524886,48.40327276469799,-186.68,214.5,0.12246464920385533,0.003077997090823808,0.11683163245179788,0.12903780728226102,0.00406468399055806,0.0038883509366745366,0.00010267185255170583,0.015063069321967971,0.00339845859237006,0.014021104316463938,8.998088856654318e-08,0.10770695774440316,-0.8219429277623794,0.009266539577784996,-0.8382838822105287,-0.8062265652820696,0.0916444780118696,1.4386737933871212,-2.66265869140625,2.899169921875,35.902972972972925,0.014369298765676206,35.87,35.93,0.13574660633484165,-0.00013127413127412088,2,0
23,0.037203925811151686,0.003270650668130691,0.02614603393058864,0.04128321146935048,0.0372039081981856,0.003270649119749492,0.02614602155261514,0.0412831919251818,2.5598268041875795e-05,2.250380588842415e-06,1.7989853763942512e-05,2.8405032258856597e-05,2.5598268041875795e-05,2.250380588842415e-06,1.7989853763942512e-05,2.8405032258856597e-05,-0.4014988687782803,25.914534476451998,-126.98,81.53,0.11379187027222075,0.002611415603280077,0.10888644287643393,0.11867833227020234,0.0018913361568701282,0.0026766498944792985,9.073210120858004e-06,0.010699154299067351,0.0011684835763160195,0.006821965333680944,9.360960184778833e-08,0.05313892794983666,-0.8463090549093201,0.007304158318264228,-0.8574454437995359,-0.8378423287496197,0.023405619212925558,1.3438250637537892,-2.5482177734375,2.80303955078125,35.875818181818104,0.011707170932368107,35.84,35.89,0.14479638009049775,1.3705114622537966e-05,2,0
24,0.03713932350059383,0.002654706844341343,0.015825231063251018,0.03990710442037213,0.03713930591821198,0.002654705587558357,0.015825223571319692,0.03990708552767574,2.555381823649341e-05,1.8265786712670448e-06,1.088859569922836e-05,2.745819785022804e-05,2.555381823649341e-05,1.8265786712670448e-06,1.088859569922836e-05,2.745819785022804e-05,0.19463538722442106,35.02177460105067,-182.35,204.13,0.10638341083442404,0.002650742352121092,0.1017401941903647,0.11320410852197375,0.0015163633679326435,0.002687929674914477,3.890657843317769e-06,0.010646708461665346,0.0011994036371908243,0.010997863654567943,1.0299487449759665e-07,0.11581546516876293,-0.8682892878011949,0.006197302018787845,-0.8799181901890775,-0.8575922532433247,0.04082660913689284,1.326482320136486,-2.37274169921875,2.34222412109375,35.89576576576571,0.012982979124072334,35.87,35.91,0.14019219898247595,0.0001937521937521745,2,0
25,0.03707627787221958,0.00038408352953168165,0.03577878327343708,0.03853099737139378,0.037076260319684085,0.00038408334770005453,0.035778766335157565,0.03853097913016968,2.551043951075885e-05,2.6426977597279664e-07,2.4617694624342375e-05,2.651136344159949e-05,2.551043951075885e-05,2.6426977597279664e-07,2.4617694624342375e-05,2.651136344159949e-05,-0.036357466063348616,16.094522562919547,-47.62,36.83,0.0990542958767421,0.0017458052165547962,0.09545578796453186,0.1031396760788394,0.0001394829172733886,0.00019066887990526398,6.554582948151643e-07,0.0006793874868788033,6.743605042315084e-05,0.000697620811629865,1.0280812410418116e-07,0.00735079069553444,-0.8891931490191217,0.004716932581983071,-0.896103865852138,-0.8801700601857317,0.05540308372001344,1.4094354706924008,-2.58331298828125,3.14788818359375,35.91327272727267,0.013625450178323928,35.89,35.93,0.14479638009049775,0.00017023195004846402,2,0
26,0.03413289704593029,0.004993057721247866,0.01651328458774019,0.044035425567307176,0.034132880886841035,0.004993055357450121,0.016513276770072718,0.04403540472019392,2.3485237876847143e-05,3.435487710244508e-06,1.136201290354264e-05,3.0298701076113697e-05,2.3485237876847143e-05,3.435487710244508e-06,1.136201290354264e-05,3.0298701076113697e-05,-0.13580553985302396,28.93390589582429,-230.28,181.44,0.09917134017484508,0.007612303152725213,0.09240124170975246,0.11356205750243405,0.0067390771107601714,0.007148341670783194,2.845249599379671e-07,0.02513573836329121,0.005336261993888501,0.022243230885199743,5.4862800441535236e-08,0.1979425920386238,-0.8955831190671778,0.01921963978396556,-0.9163879134279879,-0.8516338178513243,0.024028451079580702,1.5412131273115242,-3.204345703125,3.0303955078125,35.92837837837831,0.016794493978713403,35.91,35.97,0.14471452798191067,0.0002786942786943136,2,0
27,0.028127690348404958,0.00043620168052261807,0.02683408745507781,0.029586301553034506,0.0281276770322818,0.0004362014740173799,0.02683407475136817,0.029586287546380288,1.9353338155553383e-05,3.0012981949844475e-07,1.8463270968256787e-05,2.0356939785513888e-05,1.9353338155553383e-05,3.0012981949844475e-07,1.8463270968256787e-05,2.0356939785513888e-05,0.16654977375565588,18.044931188639268,-78.59,87.06,0.1136733260666694,0.0009416247298085713,0.11058927969782356,0.11582715188840922,0.0004923576769005734,0.0005950599146586416,7.33693722610179e-06,0.0025802675259871525,0.0002896322610249436,0.0020719131336449973,9.045450156979678e-08,0.01879030976900313,-0.8450804144574214,0.0016458663306605404,-0.8510153751007927,-0.8432599145459059,0.14178248746554614,1.5047528045781418,-2.7008056640625,3.01361083984375,35.92909090909085,0.019519009594168527,35.89,35.97,0.14479638009049775,-0.0004795888465613664,2,0
28,0.02898386554856125,0.0003242423626955472,0.028210194504056162,0.029586301553034506,0.028983851827109774,0.00032424220919374433,0.02821018114887423,0.029586287546380288,1.9942431961826622e-05,2.2309588920650464e-07,1.941010537688534e-05,2.0356939785513888e-05,1.9942431961826622e-05,2.2309588920650464e-07,1.941010537688534e-05,2.0356939785513888e-05,0.15525720746184274,21.10228101537817,-60.03,36.42,0.11498749413395848,0.0009513772881053553,0.1117353430723888,0.11662023118039135,0.0006007727187201025,0.0007555438068221195,8.138151474605873e-06,0.0027059638052680858,0.0003988798600754977,0.0025757182455545674,9.084095416167504e-08,0.024536010361806013,-0.8414148046205311,0.002402452880409715,-0.8466121288686139,-0.8393568722018315,0.04492822717503522,1.395805465303499,-2.66265869140625,2.55889892578125,35.857567567567564,0.02575757445550673,35.81,35.91,0.13566986998304126,-0.0007339417339417147,2,0
29,0.029459431955193592,0.00026682799532438414,0.02889824802854533,0.029586301553034506,0.02945941800860075,0.0002668278690035125,0.028898234347627262,0.029586287546380288,2.026964679422058e-05,1.8359176878431945e-07,1.9883522581199616e-05,2.0356939785513888e-05,2.026964679422058e-05,1.8359176878431945e-07,1.9883522581199616e-05,2.0356939785513888e-05,-0.4064592760180999,22.38650987152709,-56.72,33.99,0.11575203166002908,0.0006601131939498338,0.11424424404072887,0.11710083739739095,1.1173141797595077e-05,1.8881804142438067e-05,3.417732886016474e-07,7.485417621693159e-05,7.76505512346942e-06,7.643926549848796e-05,7.525327152330158e-08,0.0008057784044582061,-0.8384070119943723,0.0007906547743832577,-0.8399632537838816,-0.8371835242258803,0.012541127887781443,1.3782264831626134,-2.40020751953125,2.435302734375,35.772545454545444,0.024137348036766072,35.73,35.81,0.14479638009049775,-0.0006282713071704102,2,0
30,0.03112196852567854,0.0018653825604534066,0.02476992688161029,0.03921905089588296,0.031121953792013407,0.0018653816773498359,0.024769915155109082,0.03921903232892271,2.141355985803872e-05,1.2834818299958657e-06,1.7043019355313955e-05,2.698478064591377e-05,2.141355985803872e-05,1.2834818299958657e-06,1.7043019355313955e-05,2.698478064591377e-05,0.1678789592760178,30.08249064127141,-171.28,101.42,0.10913262996045306,0.006294522401129971,0.09951985248330003,0.1165564764953753,0.011019129687115664,0.009628415165322576,2.1507682790344306e-07,0.03506807693242072,0.008541150599891835,0.02051252519166525,3.542750343088485e-08,0.09911244813137626,-0.8693441968549399,0.017422742525351784,-0.8861011072673318,-0.8390040090947103,0.09940718874802901,1.4634731667269758,-2.69012451171875,2.557373046875,35.69360360360358,0.030983657208939645,35.65,35.75,0.14027149321266968,-0.0008727623727623775,2,0
31,0.03293949347520541,0.0007342490023627641,0.030962408602012863,0.03577878327343708,0.03293947788109392,0.0007342486547568893,0.03096239394388635,0.035778766335157565,2.2664113121341777e-05,5.052021355855869e-07,2.1303774194142445e-05,2.4617694624342375e-05,2.2664113121341777e-05,5.052021355855869e-07,2.1303774194142445e-05,2.4617694624342375e-05,-0.1511984171848504,16.255619826759958,-36.17,29.38,0.100032192275048,0.00149482653478371,0.0964519022877797,0.103209300671351,0.0010897101480613516,0.0008675511466377633,5.364772594708498e-05,0.002928269728886075,0.000816798014481098,0.0035467518278097967,7.353122710718196e-08,0.02451220409889441,-0.8874960231847762,0.004243253561468429,-0.89568975709501,-0.8830442068740729,0.036089852484635115,1.3889527656485765,-2.58026123046875,2.74200439453125,35.661171171171134,0.01080029518605149,35.65,35.68,0.14471452798191067,0.00014829764829765393,2,0
32,0.03701868063148158,0.005665066699019179,0.02064160573467524,0.060548710155047376,0.037018663106213816,0.005665064017081077,0.020641595962590898,0.06054868149026664,2.54708095637908e-05,3.897865418093315e-06,1.4202516129428297e-05,4.166071397965634e-05,2.54708095637908e-05,3.897865418093315e-06,1.4202516129428297e-05,4.166071397965634e-05,0.3679242081447954,67.52061538416436,-261.35,444.13,0.10581987303568942,0.009076162315057116,0.09421761575784912,0.1337623345155346,0.028018665406032973,0.02565155612353956,0.00027556502984937457,0.09286385673149876,0.02163016696815184,0.10941375767107486,4.253358265593477e-08,0.9673040262005476,-0.8964423128203058,0.0025221357947256893,-0.898808172470875,-0.8898426066431452,0.030878023824651338,3.2788018011554683,-10.64453125,10.43243408203125,35.69709090909092,0.019133286299748267,35.66,35.73,0.12217194570135748,0.0003062011135405785,2,0
33,0.039455666587562416,0.0011537168073742735,0.032338515650991204,0.04472347909179635,0.03945564790858428,0.0011537162611852784,0.032338500341392414,0.04472345791894695,2.7147584752374736e-05,7.938181639619151e-07,2.2250608602771e-05,3.077211828042797e-05,2.7147584752374736e-05,7.938181639619151e-07,2.2250608602771e-05,3.077211828042797e-05,-0.2582815149802142,21.139069412132844,-68.34,62.53,0.09782608082461693,0.0018178181795505109,0.09369306720939416,0.10168548348552564,0.002250145896370861,0.0035034979193571745,1.1760697506150405e-05,0.012426819050092564,0.0016737582285225306,0.01023320308178807,8.856760435466128e-08,0.08713087413628531,-0.8949352935144201,0.003444478555128016,-0.8993460078060808,-0.8894393786864535,0.012669796510265872,1.474641688472368,-2.98309326171875,2.88848876953125,35.68486486486482,0.019399306426948714,35.65,35.71,0.13566986998304126,-0.00041997191997195115,2,0
34,0.03959810300722502,0.00036201061678612506,0.03921905089588296,0.040595157944861314,0.03959808426081501,0.0003620104454041883,0.03921903232892271,0.04059513872642877,2.7245588540145388e-05,2.490824449423648e-07,2.698478064591377e-05,2.793161505454232e-05,2.7245588540145388e-05,2.490824449423648e-07,2.698478064591377e-05,2.793161505454232e-05,-0.09010180995475137,15.410381747396624,-33.37,25.69,0.09832618229712818,0.0014976054782983338,0.09526119598675196,0.10124243974956333,0.0002593218236467829,0.00044106292882255683,4.5224773176528904e-07,0.0016290531373314744,0.0001359325722759539,0.0014098658418196413,9.154845110566694e-08,0.014855346827090618,-0.8916553598424852,0.003381260721096036,-0.8976955261104553,-0.887313614886625,0.08374970425939181,1.3619958589301475,-2.31475830078125,2.57110595703125,35.642636363636434,0.015706239219277506,35.61,35.66,0.14479638009049775,-0.0003724274733448592,2,0
35,0.039963081656262917,0.0005483700785261052,0.03853099737139378,0.04128321146935048,0.03996306273706599,0.0005483698189184572,0.03853097913016968,0.0412831919251818,2.749671314820637e-05,3.7730760800646327e-07,2.651136344159949e-05,2.8405032258856597e-05,2.749671314820637e-05,3.7730760800646327e-07,2.651136344159949e-05,2.8405032258856597e-05,0.08231769361221053,14.810312799976845,-32.69,26.58,0.09439879982018033,0.0013948024664329922,0.09167224593724516,0.09698745590950678,0.00013304322925847416,0.00022868278494374037,2.3934373836971504e-07,0.0008319261069031107,0.00012534871358751306,0.0009636615184714037,1.2625977382208067e-07,0.009042026593739759,-0.9034744819461932,0.0041681779053513324,-0.9107679709494568,-0.8978029636026821,0.04470907240295568,1.4029625393987193,-2.39410400390625,2.60772705078125,35.61360360360364,0.01320611329860085,35.59,35.65,0.1492368569813454,0.00011056511056509866,2,0
36,0.028326167326622773,0.013758188102672151,0.0,0.060548710155047376,0.02822029957826772,0.013974020468738534,-0.011696904378801509,0.06054868149026664,1.9417067394595825e-05,9.614869482955873e-06,-8.048092473342704e-06,4.166071397965634e-05,1.9417067394595825e-05,9.614869482955873e-06,-8.048092473342704e-06,4.166071397965634e-05,0.3849321266968313,83.46900590535374,-404.55,327.42,0.09000001204048079,0.010281293835676535,0.07436339901748729,0.10978813308243143,0.022613559708495143,0.016922831171525817,6.262961985049615e-05,0.05411732824197172,0.019434721745789682,0.06263857938756655,6.222949333611894e-08,0.41011978635571417,-0.9390154848267964,0.0219233375562422,-0.9708473849845576,-0.9104581265278048,0.07383338471452991,1.6234507638365154,-4.22515869140625,2.9022216796875,35.63509090909093,0.017875603208915812,35.61,35.66,0.0904977375565611,0.0004403669724770301,2,0
37,0.03371306601778669,4.6257302822297716e-05,0.03302656917548038,0.034402676224458736,0.03371305005745278,4.6257280923310995e-05,0.033026553540145435,0.0344026599376515,2.319637193175195e-05,3.1827470104900705e-08,2.272402580708528e-05,2.367086021571383e-05,2.319637193175195e-05,3.1827470104900705e-08,2.272402580708528e-05,2.367086021571383e-05,-0.3216063348416285,22.45493670889952,-74.36,52.23,0.10328088510958887,0.001560507801365541,0.09965227257052693,0.1084109130770118,0.006153997211126084,0.008152529088275833,0.00024989596091597665,0.0313386259729766,0.002702539130141934,0.010265150982352207,6.130659662220704e-08,0.06560254014230649,-0.8823285596217183,0.012322861828364793,-0.9204877657772668,-0.8585015346035824,0.01596607491647495,1.7995014717508986,-3.2562255859375,4.1534423828125,35.71279279279279,0.019413526034730955,35.66,35.73,0.15384615384615385,3.071253071252834e-05,2,0
38,0.033715401041059835,2.312865141114905e-05,0.03371462269996956,0.034402676224458736,0.033715385079620484,2.3128640461654715e-05,0.03371460673889847,0.0344026599376515,2.319797855122361e-05,1.591373505245061e-08,2.319744301139956e-05,2.367086021571383e-05,2.319797855122361e-05,1.591373505245061e-08,2.319744301139956e-05,2.367086021571383e-05,0.15532504239683326,28.667992047334966,-71.23,43.5,0.12400434258586328,0.0038525720192440728,0.10971626111953532,0.13002344579608147,0.008058581902882792,0.009711101966829802,1.9159547535207824e-05,0.02789203138290076,0.006449038929863973,0.021954277254034642,8.983930097159617e-08,0.15510524504987566,-0.8215156933606429,0.012410318812042468,-0.8571731154114448,-0.8099229831271116,0.137802935837405,1.6066758294068968,-2.85491943359375,2.95562744140625,35.66863636363637,0.01875571538236195,35.63,35.71,0.1492368569813454,-0.000458805761558075,2,0
39,0.03011012510731166,0.005502415664399524,0.0,0.057796496057090675,0.0300820905866584,0.0056535962867154226,-0.006880531987530299,0.057796468695254524,2.0698078653328524e-05,3.889975009532801e-06,-4.7341720431427655e-06,3.976704516239923e-05,2.0698078653328524e-05,3.889975009532801e-06,-4.7341720431427655e-06,3.976704516239923e-05,-1.9718778280542968,62.73429843740218,-306.06,257.19,0.12152298790104638,0.0027139831225738986,0.10255769399184783,0.1254714648288698,0.005098398377232879,0.006287482702618149,4.1839244172135626e-05,0.022035047950461968,0.004266147778244811,0.014269607917184882,3.261570918899892e-08,0.09886002892730704,-0.8263411157250199,0.009307867424421594,-0.8633473747708964,-0.820600625552217,0.00861025470393844,1.6102350584841747,-3.9764404296875,3.02581787109375,35.601891891891945,0.02580290903054857,35.55,35.65,0.14479638009049775,-0.0007149877149877157,2,0
40,0.038656946152147736,0.00876116641205736,0.0006880535244891746,0.05986065663055819,0.03857607188217824,0.009110582487640326,-0.00963274478254242,0.05986062829151361,2.6542389653859635e-05,6.2685654231242445e-06,-6.627840860399872e-06,4.1187296775342064e-05,2.6542389653859635e-05,6.2685654231242445e-06,-6.627840860399872e-06,4.1187296775342064e-05,1.4702091577162186,189.72542146611042,-668.24,464.19,0.1168506191863244,0.019389574920841385,0.07909463560867043,0.1433251613713627,0.15807961409750967,0.16579536219578944,0.004893101299743343,0.9062866036971772,0.21406908138627487,0.4460020347828932,3.3965820822601245e-08,2.5360428816779312,-0.9927072925421097,0.1423960891512727,-1.6733166834542446,-0.826716893728085,0.05188114510827065,5.416395882931299,-19.024658203125,13.66729736328125,35.532545454545534,0.016317105560861012,35.5,35.57,0.14019219898247595,-0.0002434461150057311,2,0
41,0.013423270456267315,0.0055398710250097035,0.0,0.044035425567307176,0.013298729585853215,0.005832491102031878,-0.022705755558849988,0.04403540472019392,9.150233430897872e-06,4.013064159451602e-06,-1.5622767742371126e-05,3.0298701076113697e-05,9.150233430897872e-06,4.013064159451602e-06,-1.5622767742371126e-05,3.0298701076113697e-05,0.602391181458453,159.3881806850995,-659.0,450.12,0.7552552291872521,0.017353139967915782,0.7260443128775541,0.806885757687815,0.2161539342905356,0.270422476181782,0.014071569745844456,0.9520800357804718,0.0991447780947532,0.298963956917746,7.031722493167081e-08,1.8398512157106008,0.8882217229537285,0.22454352576038025,0.23176209760684816,1.037838218392396,0.1730609868355679,4.998964432890656,-7.69805908203125,12.89520263671875,34.078181818181875,0.014596501335583928,34.05,34.11,0.1582815149802148,0.0002233392692108494,2,1
42,0.011364558270437137,0.0021581144432006867,0.005504428195913397,0.019953552210186062,0.011364552890263543,0.0021581134215129,0.00550442559002424,0.01995354276383787,7.819416968543858e-06,1.4848968429437969e-06,3.7873376345142126e-06,1.372909892511402e-05,7.819416968543858e-06,1.4848968429437969e-06,3.7873376345142126e-06,1.372909892511402e-05,1.2706447963800849,113.47477075693922,-762.88,309.9,0.7110009117445191,0.021438315103088183,0.671121921448427,0.7500119042500393,0.054811576273119535,0.027120745466163287,0.009031265905546686,0.1031602494015637,0.046234294473242205,0.11463606820690975,7.084445852179044e-08,0.6551593823656001,0.9148600127444284,0.0550472732296881,0.8075996221324917,0.9974712093145668,0.5628585716823027,4.408709465723128,-6.170654296875,13.61846923828125,34.06621621621628,0.014081746798257331,34.03,34.09,0.1809954751131222,-0.0002425412425412711,2,1
43,0.011957359555529413,0.0035225643599292467,0.0,0.02889824802854533,0.011929365290018637,0.003616214023232193,-0.00481637239127121,0.028898234347627262,8.208037946890711e-06,2.488147626060471e-06,-3.313920430199936e-06,1.9883522581199616e-05,8.208037946890711e-06,2.488147626060471e-06,-3.313920430199936e-06,1.9883522581199616e-05,1.2101978518937224,68.55976741409593,-303.7,233.47,0.6355027162992302,0.021474630873975102,0.5928850487505486,0.6792659672855463,0.037815565066763764,0.02220036361097311,0.002591057980598489,0.08794579523217612,0.0250948636658146,0.07423192628391886,9.338711315365344e-08,0.4457385879086437,0.7029574177466846,0.053888286853830604,0.6031999604879221,0.8052509104417469,0.309720440491742,5.95875499110912,-7.98492431640625,19.27032470703125,34.01436363636361,0.023101643889844613,33.97,34.05,0.14019219898247595,-0.000553253837657486,2,1
44,0.011907840351990882,0.0027864353423189053,0.0020641605734675237,0.036466836797926255,0.011872031041380092,0.0029352378282988,-0.006880531987530299,0.03646681953391059,8.168588933716833e-06,2.0195997768618854e-06,-4.7341720431427655e-06,2.5091111828656657e-05,8.168588933716833e-06,2.0195997768618854e-06,-4.7341720431427655e-06,2.5091111828656657e-05,-1.3582522624434321,100.67050418881874,-731.27,306.62,0.609444314698542,0.02028481029762305,0.5869399238499572,0.6680828842828317,0.06703125109245472,0.06284954865528355,0.008633618078644807,0.2555658534250808,0.055400835854096116,0.16853372318032855,6.410283570623676e-08,1.1418162957110318,0.5942872238146311,0.010451552044881159,0.5778537435530255,0.608549107336399,-0.6925019545891117,4.516164007547797,-7.97271728515625,12.62969970703125,33.95468468468462,0.015643541672899126,33.93,33.99,0.0995475113122172,-0.0003680238680238492,2,1
45,0.013132949229305252,0.004952673535004294,0.0006880535244891746,0.03371462269996956,0.013045768851017448,0.005177939663640911,-0.00963274478254242,0.03371460673889847,8.976182988135337e-06,3.5626979485183054e-06,-6.627840860399872e-06,2.319744301139956e-05,8.976182988135337e-06,3.5626979485183054e-06,-6.627840860399872e-06,2.319744301139956e-05,-0.690265837104072,59.06080982247321,-240.46,278.76,0.6080567060015057,0.017573911125401416,0.5791634104877523,0.6479586877395179,0.052392582541324666,0.037201922728774935,0.010312372759603696,0.1549700350780366,0.03629381076084806,0.13015534379098506,7.459915907226389e-08,0.8087777898836715,0.6046859458048778,0.03471919303505856,0.5653632175851345,0.6596703521058832,0.3067623261100762,3.832240731922879,-5.29937744140625,13.42315673828125,33.89463636363633,0.022870277365542684,33.84,33.95,0.14932126696832582,-0.0006006356648558397,2,1
46,0.011638534334487268,0.0028984179659053808,0.0041283211469350465,0.03027435507752368,0.011599611788480126,0.0030504390354011354,-0.006880531987530299,0.03027434074513332,7.98114999535717e-06,2.0988643359088704e-06,-4.7341720431427655e-06,2.083035698982817e-05,7.98114999535717e-06,2.0988643359088704e-06,-4.7341720431427655e-06,2.083035698982817e-05,1.5124250989259485,65.26415210575186,-464.57,299.26,0.5978771884891002,0.00964322282775743,0.583532935183197,0.6177737574512817,0.020270104959284253,0.009623379420100359,0.004607245914640276,0.03954633516243025,0.0171362959652527,0.04351994090528494,7.30744780241821e-08,0.2339797762242193,0.6059451099761054,0.02818981922663752,0.5667474917634423,0.6588717511256413,-0.024598584822496057,2.2414849758658253,-3.97491455078125,6.18438720703125,33.86144144144142,0.02385567894112461,33.81,33.89,0.13566986998304126,-0.00026404001404001205,2,1
47,0.017801439093429718,0.008483542388126123,0.0,0.0571084425326015,0.017443393933545354,0.009197247693743029,-0.031650447142639385,0.05710841549650149,1.2001982993085107e-05,6.3281956954037476e-06,-2.177719139845672e-05,3.9293627958084963e-05,1.2001982993085107e-05,6.3281956954037476e-06,-2.177719139845672e-05,3.9293627958084963e-05,-1.6242703619909464,93.66037530451477,-323.72,358.01,0.5746441020876902,0.0203138199307014,0.5527239792862826,0.6777271817299069,0.07748702152066668,0.054607547687199366,0.009297562072811535,0.3728383213310312,0.08781751255473731,0.2242050896048461,4.8819640774411255e-08,1.274174149342076,0.4782206962037147,0.03469708155130642,0.43702849423824736,0.5649140172122605,0.11033606546492898,2.6741350854990342,-5.97381591796875,9.39788818359375,33.79690909090907,0.02147918461908724,33.75,33.84,0.07692307692307693,-0.0005337781484570551,2,1
48,0.013045805808958592,0.0055235214058776145,0.0006880535244891746,0.04816374671424223,0.01291207629931108,0.005829273842882568,-0.0137610639750606,0.0481637239127121,8.884195400284174e-06,4.010850514002711e-06,-9.468344086285533e-06,3.313920430199936e-05,8.884195400284174e-06,4.010850514002711e-06,-9.468344086285533e-06,3.313920430199936e-05,-0.6522611644997147,96.12917848628136,-545.31,309.57,0.6689234938089542,0.017448675764695096,0.6342484732659182,0.7212731024260295,0.2068337958678651,0.10137977407566286,0.03178968738432572,0.4332001624034813,0.13057026413795858,0.30714888071566193,6.295464238803562e-08,2.373186590188884,0.6350369369998752,0.08339563308078911,0.4960405478154655,0.7522313149782757,0.5805419379115881,3.7303136440756615,-8.36639404296875,14.32342529296875,33.75306306306306,0.01824719120889854,33.71,33.79,0.07687959299039004,-0.00044085644085648586,2,1
49,0.013901950227263734,0.006636475322740463,0.0006880535244891746,0.044035425567307176,0.013634194437281474,0.0071704631779837295,-0.028898234347627262,0.04403540472019392,9.381051094992277e-06,4.93366012615252e-06,-1.9883522581199616e-05,3.0298701076113697e-05,9.381051094992277e-06,4.93366012615252e-06,-1.9883522581199616e-05,3.0298701076113697e-05,1.280565610859728,105.80537696605488,-526.63,314.1,0.7117698940420685,0.026065530542787728,0.645653373902191,0.7551134931657595,0.09425918571553343,0.03528841054042232,0.017345609015637985,0.17015801935618935,0.07580961826205064,0.19110716783525536,7.285869907391884e-08,0.8729697629606358,0.8780145782645795,0.06794062155292999,0.7536366978248341,0.9454856664313378,-0.38566467076888217,3.350001392354406,-7.15789794921875,9.84954833984375,33.66490909090913,0.026414371244919733,33.63,33.73,0.09502262443438916,-0.0007245677704393157,2,1
50,0.012139785997123988,0.005886231504945135,0.0006880535244891746,0.08738279761012517,0.011984112105430385,0.0061970162244105505,-0.02545796835386211,0.0873827562416348,8.245706668356181e-06,4.263876835930004e-06,-1.7516436559628233e-05,6.012398494791312e-05,8.245706668356181e-06,4.263876835930004e-06,-1.7516436559628233e-05,6.012398494791312e-05,0.03308648954211427,91.20346357506416,-649.86,575.34,0.7487538600103307,0.02602385781516824,0.7161808835764104,0.8220393207822454,0.0959692206035653,0.06539571409435267,0.01830840235350082,0.29097502266340103,0.07207984084063015,0.1853282429933799,7.315859518186585e-08,1.3158462744343424,0.9883926514754048,0.023672981817738192,0.9458151474711812,1.0211865697760014,0.02534235414976961,3.8589686789506814,-6.53228759765625,13.67340087890625,33.595945945946,0.018714467996538343,33.57,33.65,0.17637083097795364,-0.0004299754299754025,2,1
51,0.011718703466865413,0.0049385324534107645,0.0027522140979566985,0.0488518002387314,0.011718697919033485,0.004938530115426281,0.00275221279501212,0.04885177711146513,8.063087588411557e-06,3.397971443057224e-06,1.8936688172571063e-06,3.3612621506313634e-05,8.063087588411557e-06,3.397971443057224e-06,1.8936688172571063e-06,3.3612621506313634e-05,0.02666855203619978,76.42227625330388,-579.93,332.32,0.8650512462881877,0.06554221564169045,0.7301879579571247,0.9971515620874859,0.23596957718654984,0.13397158834864367,0.012282316942536021,0.5449273619150417,0.18482519114657947,0.4244270969989839,4.3768123347831533e-08,2.0069472902911887,1.2019722196639122,0.11554336044543312,0.9942044002611221,1.4348192738999053,0.05255699059103085,3.5147310956093003,-7.09686279296875,10.90850830078125,33.546727272727296,0.03045440976903312,33.49,33.59,0.0904977375565611,-0.0007977819353966138,2,1
52,0.010412647116081685,0.0008541306750287853,0.00756858876938092,0.014449124014272669,0.010412642186558848,0.0008541302706689205,0.00756858518628333,0.014449117173813631,7.164451763932625e-06,5.876870648855415e-07,5.207589247457042e-06,9.941761290599808e-06,7.164451763932625e-06,5.876870648855415e-07,5.207589247457042e-06,9.941761290599808e-06,-0.20372737556560933,33.86466091518991,-252.49,100.4,0.956968491062288,0.034752225284692025,0.8966577389378478,1.052853806652702,0.2610585408998631,0.11878019314618027,0.09640585926465507,0.5418923780467354,0.2020031199625371,0.3603150640740089,2.991622771730817e-08,2.056870374659699,1.4561137627274554,0.039832345905026746,1.3960450180056956,1.5234312980516311,0.050762708792424914,1.933093820824192,-4.07562255859375,4.18548583984375,33.47450450450443,0.022086592024959648,33.43,33.5,0.12669683257918554,-0.0005124605124605159,2,1
53,0.010330909868262416,0.000538857738625988,0.0041283211469350465,0.012384963440805143,0.01033090497743528,0.0005388574835216432,0.004128319192518179,0.012384957577554541,7.108212215738008e-06,3.707626152090739e-07,2.84050322588566e-06,8.521509677656977e-06,7.108212215738008e-06,3.707626152090739e-07,2.84050322588566e-06,8.521509677656977e-06,-0.12156020350480436,34.92808026999999,-260.26,96.8,0.9847346278227564,0.07923800872677786,0.8971086730833259,1.1573411297036005,0.2137023045756542,0.1850990676295865,0.013250772767219029,0.6632264018543298,0.17325567698191555,0.3832553758602513,7.743747332256135e-08,2.569062002923048,1.5876711200789528,0.06531628164069381,1.52217621367091,1.7194457430404075,0.0968286212333022,3.3067301670843814,-6.44073486328125,11.47308349609375,33.40531531531528,0.024451452906216902,33.37,33.45,0.12662521198417184,-0.0006858546858546995,2,1
54,0.010393188588805502,0.0004904827410162068,0.006880535244891746,0.012384963440805143,0.010393183668494538,0.0004904825088134009,0.006880531987530299,0.012384957577554541,7.151063268335479e-06,3.3747805912147355e-07,4.7341720431427655e-06,8.521509677656977e-06,7.151063268335479e-06,3.3747805912147355e-07,4.7341720431427655e-06,8.521509677656977e-06,0.052630090497735725,48.69137037526814,-342.26,146.74,1.0402074846749123,0.033444084373932495,0.9818329328459972,1.120444947669867,0.14566993223238547,0.07890156674560092,0.035259846738895755,0.31748492487306124,0.09743043376169096,0.2626443896623267,5.574794048612831e-08,1.797643413133626,1.824248445196872,0.04865286933774692,1.7217488238404484,1.882960213287412,-0.004247721219528745,1.8834763266789896,-4.42047119140625,3.91998291015625,33.356000000000016,0.02032463798179087,33.33,33.39,0.0904977375565611,-0.0004775150463223423,2,1
55,0.01075044714959793,0.001246502990366574,0.004816374671424223,0.018577445161207715,0.010750442060154786,0.0012465024002510322,0.00481637239127121,0.018577436366331808,7.396876047498677e-06,8.576599637460473e-07,3.313920430199936e-06,1.2782264516485464e-05,7.396876047498677e-06,8.576599637460473e-07,3.313920430199936e-06,1.2782264516485464e-05,0.3248728094968917,55.63110034509158,-276.13,222.31,1.0086063340100542,0.05490959783914466,0.9472581302644107,1.1542469910427953,0.11939718335471708,0.1286860684529585,0.009176042193956287,0.5016002483379176,0.09650963155005024,0.2829811622725977,6.725699464027457e-08,2.0665562773319284,1.7544956860634209,0.0699676994765815,1.6047007818703185,1.8136389215648088,0.032334637831734375,2.249438495189465,-4.31060791015625,5.25970458984375,33.303693693693674,0.024565702595575164,33.27,33.34,0.10853589598643301,-0.0006422428922428748,2,1
56,0.011301512642062042,0.0006545769908212677,0.009632749342848444,0.013761070489783492,0.011301507291735352,0.0006545766809334751,0.00963274478254242,0.0137610639750606,7.776038242809152e-06,4.503835791454195e-07,6.627840860399872e-06,9.468344086285533e-06,7.776038242809152e-06,4.503835791454195e-07,6.627840860399872e-06,9.468344086285533e-06,-0.1494796380090498,38.047680341477225,-151.26,139.7,1.013571951410397,0.02918400309164245,0.9486269446359821,1.101892590882431,0.15790267245231476,0.11952267367511835,0.0304539050311852,0.5361904086574337,0.13454375371535596,0.3151135824713644,4.5870433673655946e-08,1.6262608079449556,1.7312133626281316,0.06334207676514901,1.6024423520029083,1.7965589732187648,0.12477582470607194,2.246135375220378,-4.18548583984375,5.61065673828125,33.205909090909074,0.04386540269642021,33.15,33.27,0.08597285067873305,-0.0013219574870951393,2,1
57,0.010766288369634143,0.0006566288132507865,0.00894469581835927,0.013761070489783492,0.010766283272691388,0.0006566285023916285,0.008944691583789391,0.0137610639750606,7.407775644456655e-06,4.517953414629729e-07,6.1544236560855945e-06,9.468344086285533e-06,7.407775644456655e-06,4.517953414629729e-07,6.1544236560855945e-06,9.468344086285533e-06,-0.2905992085924252,24.08749722439506,-93.95,100.56,1.0336524366697322,0.018207170490446317,1.0040205054864844,1.0734981143015816,0.12441842653979004,0.07276252903799259,0.03324385591901908,0.2782370199928267,0.0864232536180663,0.1662714845281378,1.0472127587313196e-07,1.0200311667450088,1.8255204182303728,0.024445447575691004,1.7641211180785508,1.8498358420718184,-0.041395086202265466,2.9375263056707412,-5.13763427734375,8.39996337890625,33.077117117117176,0.04016603799113404,33.0,33.16,0.13114754098360654,-0.0011825201825201885,2,1
58,0.010594778931387692,0.001022393020653127,0.0041283211469350465,0.015825231063251018,0.010594773915640522,0.0010223925366350244,0.004128319192518179,0.015825223571319692,7.289768082721659e-06,7.03460455212954e-07,2.84050322588566e-06,1.088859569922836e-05,7.289768082721659e-06,7.03460455212954e-07,2.84050322588566e-06,1.088859569922836e-05,-0.4184332579185524,20.96821093942138,-205.11,85.1,1.0376128850833448,0.026311232618389302,0.9996650752500426,1.1175190754008917,0.10924305264207301,0.073234333676765,0.01890288667869758,0.3523559270034679,0.09851015116529582,0.2350082604082813,6.566509003214094e-08,1.2061070115803618,1.8527829811817709,0.021784973025443497,1.8333976279956905,1.9118645268092485,0.457969494337331,2.9861857777670067,-5.70220947265625,7.91778564453125,32.96909090909084,0.02588595458213046,32.91,33.0,0.11312217194570134,-0.0007361089195951679,2,1
59,0.010637587691395502,0.000739672654197922,0.008256642293870095,0.013073016965294318,0.010637582655381941,0.0007396723040244097,0.008256638385036359,0.01307301077630757,7.319222773035355e-06,5.089338948130204e-07,5.6810064517713185e-06,8.994926881971256e-06,7.319222773035355e-06,5.089338948130204e-07,5.6810064517713185e-06,8.994926881971256e-06,0.5470022624434387,48.28309108454772,-170.08,117.15,1.1021701942505484,0.0324431761971791,1.0571007477071614,1.1831581347546574,0.16500961809535802,0.11009817391403633,0.03805017489815887,0.4822124776617174,0.1094107265730618,0.24585862809291875,7.706198390522445e-08,1.6970670472391465,1.9930896520045844,0.04145486848482882,1.9136380148988643,2.045644335031056,-0.2025607995099972,2.7317417528135803,-6.37359619140625,7.97576904296875,32.86369369369365,0.03282297393424434,32.81,32.91,0.0995475113122172,-0.0009419094419094176,2,1
60,0.010672613040492818,0.0007173518499034554,0.008256642293870095,0.013761070489783492,0.010672607987897657,0.0007173515102969881,0.008256638385036359,0.0137610639750606,7.343322065110182e-06,4.935760012901641e-07,5.6810064517713185e-06,9.468344086285533e-06,7.343322065110182e-06,4.935760012901641e-07,5.6810064517713185e-06,9.468344086285533e-06,-0.2871848501978513,44.78574076163559,-165.48,172.07,1.092937225640264,0.03562261948441657,1.0592119917900835,1.1835703957821002,0.08821396985918642,0.08478004886611905,0.010983098013714544,0.33863859629325704,0.07521679972683741,0.19233649605837835,6.642098071552027e-08,1.1237220019845662,2.0419263368725202,0.028889690883692518,2.0132529105712766,2.121052495959556,0.17071982264845406,2.755995228512272,-4.30755615234375,7.56683349609375,32.773090909090904,0.024299100415277854,32.73,32.83,0.08592425098925946,-0.0006642472330545808,2,1
61,0.01073410198668589,0.0005817926543725361,0.00894469581835927,0.013073016965294318,0.01073409690498073,0.0005817923789420875,0.008944691583789391,0.01307301077630757,7.3856297111971376e-06,4.003041073412331e-07,6.1544236560855945e-06,8.994926881971256e-06,7.3856297111971376e-06,4.003041073412331e-07,6.1544236560855945e-06,8.994926881971256e-06,0.37914027149321294,40.157753769795534,-167.49,160.26,1.1281881485436929,0.015676230074354886,1.09368413967135,1.1672773398013856,0.0997893482976631,0.04733499524914368,0.028546968821233323,0.21054230608355687,0.06808922046908861,0.17377622124833592,6.436405886045549e-08,1.1848994916624649,2.1373726832778086,0.01647201015769404,2.1139953712525297,2.1803784407463884,-0.1087719816176233,2.387831397591828,-4.6600341796875,4.93927001953125,32.67756756756758,0.03283088570607639,32.63,32.75,0.09502262443438916,-0.0008653913653913646,2,1
62,0.011084270167957369,0.0005484802934778996,0.009632749342848444,0.013761070489783492,0.011084264920476728,0.0005484800338180758,0.00963274478254242,0.0137610639750606,7.6265639343601396e-06,3.773834417206979e-07,6.627840860399872e-06,9.468344086285533e-06,7.6265639343601396e-06,3.773834417206979e-07,6.627840860399872e-06,9.468344086285533e-06,-0.3907292255511591,33.55878416713445,-143.18,121.1,1.169892138379904,0.04203712480309304,1.1120772360483628,1.258154742997118,0.1478347274302679,0.10304936552284244,0.03458537947253452,0.39021632877167056,0.11092616943246407,0.3093215309360268,6.190938850458848e-08,2.2816652223838307,2.2159681211568167,0.047101722538990316,2.152610790598709,2.3172412961475017,0.05040055106279245,2.053710582574816,-4.89044189453125,3.77044677734375,32.61472727272734,0.020876654682773825,32.57,32.65,0.10401356698699828,-0.0005381060793904828,2,1
63,0.04266165354160185,0.0014387000822956633,0.034402676224458736,0.05366817491015562,0.042661633344855315,0.0014386994011907786,0.0344026599376515,0.05366814950273634,2.9353473286956713e-05,9.899017250333818e-07,2.367086021571383e-05,3.692654193651357e-05,2.9353473286956713e-05,9.899017250333818e-07,2.367086021571383e-05,3.692654193651357e-05,-0.34546636517806684,47.556086077705075,-126.1,252.96,0.1875151586125513,0.01863590801075416,0.1600177579460436,0.22483204294202694,0.038395646853578096,0.02086970283808717,0.008616812796594533,0.11226710577878801,0.023613477687668458,0.0624945685669596,5.554883619751649e-08,0.3096585615424832,-0.6586285865049857,0.04865710265799943,-0.7154826415873601,-0.5514357067742275,0.0448959947809624,1.8503530026144288,-3.20892333984375,4.02069091796875,34.398727272727236,0.02280785713536957,34.37,34.47,0.11758055398530246,-0.0003913170885647857,2,2
64,0.0433800623686418,0.0006105231310952372,0.03715489032241543,0.04816374671424223,0.04338004183178847,0.0006105228420632924,0.037154872732663616,0.0481637239127121,2.984777654440237e-05,4.2007219439343134e-07,2.556452903297093e-05,3.313920430199936e-05,2.984777654440237e-05,4.2007219439343134e-07,2.556452903297093e-05,3.313920430199936e-05,0.2342760180995476,24.205950446789146,-98.84,133.41,0.2198372452630792,0.0069240077867705465,0.20945088321357905,0.2360913645441297,0.02431861347223068,0.01901060612336235,0.003350905284903933,0.07793256904448871,0.018003477461431827,0.06914909389319593,6.448440889594842e-08,0.6015516644576524,-0.5467155856783799,0.006737055219627013,-0.5578560513546373,-0.536434967810943,0.10540420917975818,1.7886706119129805,-3.04107666015625,3.82843017578125,34.37486486486484,0.02265546350846673,34.34,34.41,0.14027149321266968,-0.0004685854685854382,2,2
65,0.04326496111220112,0.0008707271532592322,0.037842943846904606,0.05022790728770975,0.043264940629838426,0.0008707267410423091,0.03784292593141665,0.050227883508971186,2.976858079422049e-05,5.99106319413963e-07,2.603794623728521e-05,3.4559455914942184e-05,2.976858079422049e-05,5.99106319413963e-07,2.603794623728521e-05,3.4559455914942184e-05,0.170090446579988,24.90936267075867,-83.38,130.5,0.19899313722517387,0.006596602170140589,0.18368972283545384,0.21228253527300966,0.008783725748203991,0.011509682128375377,0.00013460593692667352,0.0440966977041422,0.0075308761034444454,0.031712854269135685,5.449842907512269e-08,0.2420829719618614,-0.5943254122162289,0.0218931691308862,-0.6220163318600163,-0.5514500054121969,0.035459466067066084,1.90668298361166,-3.96881103515625,4.67071533203125,34.33763636363636,0.01916091062209057,34.31,34.39,0.13566986998304126,-0.00042305524874330713,2,2
66,0.04194324471456195,0.002268898324237133,0.02614603393058864,0.05504428195913397,0.04194322485792225,0.002268897250102434,0.02614602155261514,0.0550442559002424,2.8859170029511266e-05,1.561122010574915e-06,1.7989853763942512e-05,3.787337634514213e-05,2.8859170029511266e-05,1.561122010574915e-06,1.7989853763942512e-05,3.787337634514213e-05,-0.18074660633484188,70.0097770976424,-557.03,274.22,0.20164763787759216,0.014403074981858275,0.17567473704030032,0.24305055573697398,0.06582428609173725,0.0471459594203246,0.008968310372283591,0.17221875550362606,0.050297900392586914,0.15779060220896182,4.2604367589405e-08,0.9792138509190372,-0.6432733807768088,0.028852111351562137,-0.6815516783982889,-0.5838608813910282,-0.0006307670854766582,2.66643211118942,-8.93402099609375,8.18328857421875,34.28531531531529,0.025883307773484958,34.23,34.33,0.13574660633484165,-0.0006553176553176442,2,2
67,0.0418887608381887,0.0010253881012876527,0.03577878327343708,0.05229206786117727,0.041888741007342106,0.0010253876158516366,0.035778766335157565,0.05229204310523028,2.8821682241839253e-05,7.055212290484617e-07,2.4617694624342375e-05,3.5979707527885024e-05,2.8821682241839253e-05,7.055212290484617e-07,2.4617694624342375e-05,3.5979707527885024e-05,0.09208144796380087,41.29425807912745,-245.67,125.76,0.19840964294031602,0.006478856623242208,0.19021154780940505,0.2139815444122033,0.011995056939945063,0.0088467787058891,0.0009639010946471748,0.034946679287665865,0.010176621977922486,0.028105254074682087,5.0552283997751246e-08,0.1970129086576864,-0.5992967998411469,0.016179129823431337,-0.6191300108512109,-0.5757072514876417,0.08510739095035254,2.055974530504196,-2.90374755859375,3.79791259765625,34.23499999999999,0.02388419028258194,34.18,34.27,0.14932126696832582,-0.0004980276356423318,2,2
68,0.04291305771401142,0.0011496063661442025,0.03577878327343708,0.0516040143366881,0.04291303739824568,0.0011496058219011606,0.035778766335157565,0.05160398990647725,2.9526452650071723e-05,7.909899630641975e-07,2.4617694624342375e-05,3.550629032357074e-05,2.9526452650071723e-05,7.909899630641975e-07,2.4617694624342375e-05,3.550629032357074e-05,-0.316794799321651,27.792759228479422,-143.47,103.2,0.2083688045376048,0.01232916326095112,0.19000297498445373,0.24376684045319874,0.022846527816056308,0.029981509431300832,0.0006791889881972343,0.12265523184769705,0.016357248280077518,0.07229555675474397,7.911941990457194e-08,0.6412224201124583,-0.5801105020536029,0.01794184469813856,-0.6195766326096941,-0.5588971806459428,0.0187626620653484,1.8643208884240965,-2.79388427734375,3.704833984375,34.19225225225221,0.023659928669738036,34.16,34.23,0.1582815149802148,-0.00042681642681642834,2,2
69,0.042004733660755016,0.0007386924436038202,0.037842943846904606,0.04541153261628554,0.042004713775005184,0.0007386920938943596,0.03784292593141665,0.045411511117699976,2.89014776755981e-05,5.082594580975857e-07,2.603794623728521e-05,3.124553548474225e-05,2.89014776755981e-05,5.082594580975857e-07,2.603794623728521e-05,3.124553548474225e-05,0.12496606334841676,22.640315987868252,-108.56,116.77,0.18425990678316068,0.005862700755889161,0.17266445436531386,0.2029261395522657,0.019063661302580054,0.02484272498453195,0.00013978697426782498,0.08060692181739502,0.015976273090663285,0.058508855765454684,6.008313357952487e-08,0.4723190733182433,-0.6493404253249749,0.017426308485697074,-0.6712961451762945,-0.620440521286047,0.08069210863078889,1.9814420065199367,-3.03802490234375,3.95050048828125,34.15854545454548,0.008825208072372187,34.15,34.18,0.07239819004524888,-0.0001976421792935492,2,2
70,0.04127932416130305,0.0002522740131517767,0.03921905089588296,0.044035425567307176,0.041279304618973896,0.00025227389372101057,0.03921903232892271,0.04403540472019392,2.8402357585385967e-05,1.7357785953662132e-07,2.698478064591377e-05,3.0298701076113697e-05,2.8402357585385967e-05,1.7357785953662132e-07,2.698478064591377e-05,3.0298701076113697e-05,0.0013906161673264345,18.06858536035124,-54.29,94.72,0.16757997367733904,0.006609338618127122,0.1554614389259764,0.1801848088160084,0.002865032569674979,0.005442122605106625,2.7690070412168383e-05,0.020637313765418924,0.0004625336448873871,0.003190450242915946,1.2090400211832615e-07,0.03184143168499043,-0.6839694842143877,0.016549862327288136,-0.7148496580614004,-0.6646832033657879,0.08149267833095562,2.074924955694076,-3.30352783203125,3.88336181640625,34.12873873873881,0.016825394637734862,34.11,34.15,0.14019219898247595,-0.00028852228852229036,2,2
71,0.04128009810498677,0.00017002789428140558,0.040595157944861314,0.04197126499383968,0.04128007856229125,0.0001700278137873319,0.04059513872642877,0.04197124512393483,2.840289009956116e-05,1.1698818115335765e-07,2.793161505454232e-05,2.887844946317087e-05,2.840289009956116e-05,1.1698818115335765e-07,2.793161505454232e-05,2.887844946317087e-05,0.15943438914027158,14.462131844424412,-32.42,35.3,0.14658346195242056,0.005282882455736207,0.13789591752402705,0.1559564950515188,0.0018710751010648395,0.004754329263391114,1.6453342951619747e-06,0.02364463996619991,0.0031502628304279643,0.016745612387564626,1.0008162503122657e-07,0.14107545865538404,-0.7466183610717801,0.01872400322919514,-0.7933007145398999,-0.7154089374450573,0.01950067246592584,2.0028881957253946,-3.03802490234375,3.59649658203125,34.09400000000005,0.015444916786614103,34.07,34.11,0.13574660633484165,-0.0001211820661362002,2,2
72,0.02280617230888861,0.011595842366850434,0.0,0.06674119187544994,0.02256176252517464,0.0120644646609009,-0.015825223571319692,0.0667411602790439,1.5523692874952434e-05,8.300993501175739e-06,-1.088859569922836e-05,4.592146881848483e-05,1.5523692874952434e-05,8.300993501175739e-06,-1.088859569922836e-05,4.592146881848483e-05,-0.22087054833239025,82.13305133002022,-640.66,408.55,0.22536167426525505,0.07737289317712398,0.1303726742541037,0.36539061517962657,0.09156989473184864,0.1240937788153774,0.0030662885223214768,0.4389798979155341,0.0698493043745412,0.22835762811089194,6.275495317842328e-08,1.6869828530013808,-0.5970218184483788,0.16692044597377584,-0.8159899684432836,-0.40362470107916987,0.06371140048615061,2.2721467651020624,-4.82025146484375,4.83245849609375,34.071801801801875,0.026242054076595446,34.03,34.13,0.1582815149802148,-0.0006960336960337317,2,2
73,0.017265162081695564,0.00118507281266872,0.011008856391826794,0.031650462126502035,0.017265153908076532,0.0011850722516352616,0.01100885118004848,0.031650447142639385,1.187934437341562e-05,8.153927534910967e-07,7.574675269028425e-06,2.177719139845672e-05,1.187934437341562e-05,8.153927534910967e-07,7.574675269028425e-06,2.177719139845672e-05,0.04033936651583665,51.18826188332598,-484.97,218.0,0.2372718308183773,0.006763580241840033,0.22912525997667124,0.26178738116165945,0.013200443626247121,0.013415019855510687,0.0006797910387568273,0.08522583603902173,0.017273516465198948,0.06596116602076757,6.213036383984072e-08,0.5002904882599926,-0.4824760575595227,0.013515407465044694,-0.4988428929633503,-0.4461758574020305,0.16690063792120127,2.5843104687707985,-8.44879150390625,5.474853515625,34.030363636363695,0.015950336145062208,34.0,34.07,0.13122171945701358,0.00018970763924890607,2,2
74,0.01909737701002969,0.0011096512788128967,0.004816374671424223,0.024081873357121114,0.01909736796900936,0.001109650753485265,0.00481637239127121,0.02408186195635605,1.3140005118840682e-05,7.634987504342459e-07,3.313920430199936e-06,1.656960215099968e-05,1.3140005118840682e-05,7.634987504342459e-07,3.313920430199936e-06,1.656960215099968e-05,-1.5869287330316757,65.77352655247223,-471.2,210.82,0.2517102144757227,0.009150098137413012,0.223718663597064,0.2714838696919405,0.05146621884461852,0.03007342499762623,0.00592856484442545,0.11261279565887428,0.03175185588235213,0.07085565628746245,3.2460319765448276e-08,0.4811729425346893,-0.4775186436229031,0.019739055986555728,-0.5049513580687185,-0.4445068517663605,-0.009700765483031651,1.9341580080860203,-4.4525146484375,3.95050048828125,34.100270270270315,0.018573421844831083,34.05,34.13,0.14027149321266968,0.0003395928395928433,2,2
75,0.019402331928984985,0.000533966157627904,0.013761070489783492,0.021329659259164413,0.01940232274359389,0.0005339659048393053,0.0137610639750606,0.02132964916134393,1.3349830226968485e-05,3.67396948849747e-07,9.468344086285533e-06,1.4675933333742575e-05,1.3349830226968485e-05,3.67396948849747e-07,9.468344086285533e-06,1.4675933333742575e-05,1.875161107970606,45.75164844002562,-313.46,274.9,0.2511100229977794,0.021173607291631688,0.2206617880366361,0.2974341862816225,0.056095025544255515,0.06205880978870095,0.0016892280708315705,0.21219732020296891,0.04330530397745837,0.1065549475447822,4.0485969549086676e-08,0.5263415759991501,-0.4830408558976176,0.02681202531445916,-0.5279406998169516,-0.4411800169277766,0.08083576624056457,1.9719111947353152,-3.40423583984375,4.833984375,34.08765765765772,0.013352798063891624,34.07,34.13,0.13566986998304126,-0.0002151632151632275,2,2
76,0.04287569734164117,0.0003244590248591111,0.04197126499383968,0.044035425567307176,0.04287567704356222,0.0003244588712547296,0.04197124512393483,0.04403540472019392,2.9500746738524896e-05,2.232449642306136e-07,2.887844946317087e-05,3.0298701076113697e-05,2.9500746738524896e-05,2.232449642306136e-07,2.887844946317087e-05,3.0298701076113697e-05,0.1469587337478799,14.301070685308044,-72.94,82.11,0.30756761179963743,0.007606047370123835,0.2927257350639417,0.3258780603365359,0.14282223019040774,0.1997398291288824,0.0018793093640347848,0.9694581480224108,0.04531130600436093,0.0807812192956076,4.54419444295695e-08,0.4322212004026689,-0.3984287049523264,0.19191908444362132,-1.2129804224873473,-0.29156736995555044,0.06521856222088115,1.0426179919788725,-2.54364013671875,2.056884765625,34.0622727272728,0.019148182487171445,34.0,34.09,0.13566986998304126,-0.0004423956901021422,2,3
77,0.04280097659690029,0.0002782109433664233,0.042659318518328826,0.043347372042818,0.04280095633419536,0.0002782108116566684,0.04265929832268786,0.04334735152144089,2.9449334915431927e-05,1.9142383888804808e-07,2.935186666748515e-05,2.9825283871799426e-05,2.9449334915431927e-05,1.9142383888804808e-07,2.935186666748515e-05,2.9825283871799426e-05,0.00029411764705876935,10.452155735965649,-24.88,17.18,0.2778102657405176,0.008741317798318124,0.2619667571929041,0.2928349884045333,0.0032708843234988357,0.0026242510928428425,4.119760048835307e-05,0.008703616174704481,0.0024779105192314324,0.008966850872644438,1.0450435616177199e-07,0.05558426573345638,-0.3495386733330313,0.025369800349656017,-0.3921383669370743,-0.29974520177706543,0.12895873714207012,1.1407231192503189,-2.28729248046875,2.43988037109375,34.00828828828825,0.016758694066059353,33.99,34.03,0.14027149321266968,-0.0003515268515268486,2,3
78,0.04275028152665135,0.0002330518173952999,0.042659318518328826,0.043347372042818,0.04275026128794627,0.00023305170706463838,0.04265929832268786,0.04334735152144089,2.9414454026699294e-05,1.6035197252067836e-07,2.935186666748515e-05,2.9825283871799426e-05,2.9414454026699294e-05,1.6035197252067836e-07,2.935186666748515e-05,2.9825283871799426e-05,-0.06772752967778388,12.084503423284586,-30.93,19.04,0.25360279154154114,0.007594174801991187,0.24012021148913115,0.2678747148614689,0.0029047630508331444,0.003636206316821486,4.6604110283275143e-05,0.014975230498476284,0.0021900413180256364,0.012923438728081016,1.1684564569201805e-07,0.1265908825238073,-0.4225955434469289,0.021016230907586256,-0.4583519111455103,-0.3925490981141555,0.04678786056721311,1.4449608958252909,-3.02581787109375,2.642822265625,33.98709090909083,0.009662058367700031,33.97,34.0,0.13114754098360654,-3.6066091111965225e-05,2,3
79,0.04272469916997738,0.00020700946720829028,0.04197126499383968,0.043347372042818,0.04272467894338342,0.00020700936920651708,0.04197124512393483,0.04334735152144089,2.939685201269121e-05,1.424334586543912e-07,2.887844946317087e-05,2.9825283871799426e-05,2.939685201269121e-05,1.424334586543912e-07,2.887844946317087e-05,2.9825283871799426e-05,-0.08441176470588202,14.084279191898204,-32.58,20.86,0.2308769392471172,0.005952834365096288,0.2205843429340684,0.2404664842513659,0.00035956152595306517,0.0006442968286404173,2.4819555653805327e-06,0.002547970281086036,0.0002614434833606785,0.002595488647480987,1.255258704231785e-07,0.02745557072611752,-0.4889962814764042,0.017539219019847303,-0.519506568745963,-0.4589161842202882,-0.035347963435779416,1.237571482233575,-2.874755859375,2.61383056640625,34.01288288288297,0.02398901352843251,33.97,34.05,0.13122171945701358,0.0006646191646191388,2,3
80,0.042718472441248975,0.00019287788508684923,0.042659318518328826,0.043347372042818,0.04271845221760283,0.000192877793775202,0.04265929832268786,0.04334735152144089,2.9392567694100136e-05,1.3271018297545744e-07,2.935186666748515e-05,2.9825283871799426e-05,2.9392567694100136e-05,1.3271018297545744e-07,2.935186666748515e-05,2.9825283871799426e-05,0.30039027149321296,14.397437755774419,-40.49,42.44,0.21268610027177434,0.004407264036349288,0.2052887564437919,0.22068520786803114,0.0003279580159248318,0.0003931629883222244,3.044273073592222e-06,0.0016121825122036235,0.0002522233715412499,0.0017674840889045976,1.2249386185242406e-07,0.017516167603680372,-0.5443342604791767,0.012850021419476738,-0.5631014438991433,-0.520051534802795,0.11670764729422207,1.3931297044609663,-3.78875732421875,2.92205810546875,34.103272727272746,0.032336556597170274,34.03,34.16,0.14932126696832582,0.0009432184478056127,2,3
81,0.042721585805613166,0.0001973981038674818,0.042659318518328826,0.043347372042818,0.0427215655804931,0.00019739801041589105,0.04265929832268786,0.04334735152144089,2.9394709853395672e-05,1.3582033249413758e-07,2.935186666748515e-05,2.9825283871799426e-05,2.9394709853395672e-05,1.3582033249413758e-07,2.935186666748515e-05,2.9825283871799426e-05,-0.16039005087620115,14.525210734446572,-33.3,20.86,0.2009643457103275,0.003921569755350357,0.19390475837810506,0.2076549125604885,0.0004211221599452239,0.0007794939755060424,7.432844160146068e-07,0.0030654657965074705,0.00033541079614514424,0.002365931413277595,1.1925693059813836e-07,0.022529405541110683,-0.5800237664935164,0.011129344216788664,-0.599654467501188,-0.5633150150459707,0.029493435845973137,1.0187089430710494,-2.07366943359375,2.14385986328125,34.16207207207202,0.01566065346266521,34.13,34.18,0.13566986998304126,0.00041760266760267187,2,3
82,0.04268344709215171,0.00016349424700540333,0.04197126499383968,0.043347372042818,0.042683426885087125,0.00016349416960446681,0.04197124512393483,0.04334735152144089,2.936846840202533e-05,1.1249268637382493e-07,2.887844946317087e-05,2.9825283871799426e-05,2.936846840202533e-05,1.1249268637382493e-07,2.887844946317087e-05,2.9825283871799426e-05,0.10860294117647036,16.461507463444562,-39.93,24.5,0.18943566709536108,0.003245724877164671,0.1828944901882792,0.19507881640463848,0.0005205981161220519,0.0006639673939059951,1.803876261972422e-05,0.002731959905989492,0.0003894729745013004,0.0029403363051645893,8.742370851723412e-08,0.02934096513035002,-0.6151220412992584,0.009041685774774426,-0.6319998718354431,-0.5999680762418924,0.0992810562223723,1.4339635636158248,-3.07769775390625,2.91595458984375,34.22909090909092,0.025461038132997167,34.18,34.27,0.14027149321266968,0.0007397155287063606,2,3
83,0.04267953252017855,0.00012926453709178272,0.04197126499383968,0.043347372042818,0.04267951231496715,0.00012926447589576678,0.04197124512393483,0.04334735152144089,2.936577496953253e-05,8.894083612521851e-08,2.887844946317087e-05,2.9825283871799426e-05,2.936577496953253e-05,8.894083612521851e-08,2.887844946317087e-05,2.9825283871799426e-05,0.04509892594686244,16.678181076760715,-39.63,25.88,0.17843903063409122,0.002787911875742963,0.17351291997388002,0.18409054496912028,3.374708022877645e-05,5.6386367617147097e-05,3.9393680857875655e-07,0.00019752390590869315,2.506091126950241e-05,0.00018691928877493101,9.062487906809358e-08,0.0017309385564309044,-0.6481286037223011,0.008124182653656851,-0.6608976973731343,-0.6323538769485257,-0.02657184555468669,1.1188887151641722,-2.374267578125,2.6214599609375,34.3368468468468,0.041934783815600736,34.27,34.41,0.13566986998304126,0.001206212706212692,2,3
84,0.04266632358814858,0.00014801379180966686,0.04197126499383968,0.043347372042818,0.042666303389190544,0.0001480137217374393,0.04197124512393483,0.04334735152144089,2.9356686525899848e-05,1.0184131470078774e-07,2.887844946317087e-05,2.9825283871799426e-05,2.9356686525899848e-05,1.0184131470078774e-07,2.887844946317087e-05,2.9825283871799426e-05,-0.1130656108597286,18.44233560998582,-47.52,38.43,0.1707499201523003,0.002217349116057073,0.16588636475911187,0.17513337189374314,0.0003676560865589654,0.000560704186313622,4.180349300704569e-07,0.0019013359180504066,0.00028361741029220684,0.001979162584634729,8.217280160309481e-08,0.0173124490619254,-0.6716918044508209,0.0062484599572914384,-0.6806041604045762,-0.6610964674439295,0.08418525267431302,1.2285013449862046,-2.27203369140625,2.32086181640625,34.46618181818181,0.03526476011240067,34.41,34.55,0.12669683257918554,0.001002186506773675,2,3
85,0.04265931851832915,0.00011800020595220948,0.04197126499383968,0.043347372042818,0.0426592983226874,0.00011800015008892188,0.04197124512393483,0.04334735152144089,2.9351866667484886e-05,8.119038072202055e-08,2.887844946317087e-05,2.9825283871799426e-05,2.9351866667484886e-05,8.119038072202055e-08,2.887844946317087e-05,2.9825283871799426e-05,0.002430751837195965,16.053683701882697,-35.05,25.86,0.16528973607189348,0.0017033131701894408,0.16109564728891498,0.16915268213625845,0.0006290406409003468,0.0007104966593523348,1.7766483423777844e-06,0.002920974845976801,0.0005172936067972156,0.003184424514763632,1.2434158808832807e-07,0.03038033204616272,-0.6885665606768259,0.004529201023323625,-0.6961585574333122,-0.6806778011429194,0.02651125849026729,1.2118877846508869,-2.32391357421875,2.215576171875,34.571621621621674,0.021331385350558653,34.53,34.61,0.13566986998304126,0.0005145665145665613,2,3
86,0.04265698349505598,0.00014074636731210786,0.04197126499383968,0.043347372042818,0.042656963300519685,0.00014074630068040494,0.04197124512393483,0.04334735152144089,2.9350260048013226e-05,9.684094239580836e-08,2.887844946317087e-05,2.9825283871799426e-05,2.9350260048013226e-05,9.684094239580836e-08,2.887844946317087e-05,2.9825283871799426e-05,-0.12505090497737528,14.244219792909705,-33.64,24.41,0.15915417556461006,0.001944019928958006,0.15536360539637928,0.1638314882661961,0.00015186038649925177,0.00014650826176171644,4.908024948139123e-06,0.0005606277169611626,8.434267500121952e-05,0.0006474764361805082,1.128569993234232e-07,0.006080171384493268,-0.7069629754750634,0.005509008103229494,-0.7158999761308469,-0.6963824129916584,0.09435472832558356,1.208424051219386,-2.27508544921875,2.777099609375,34.61181818181821,0.017171954840897796,34.59,34.65,0.14932126696832582,0.00035849694565291506,2,3
87,0.04265776183614702,0.00015349707261863924,0.04197126499383968,0.043347372042818,0.04265774164124225,0.0001534969999505369,0.04197124512393483,0.04334735152144089,2.9350795587837128e-05,1.0561410181496117e-07,2.887844946317087e-05,2.9825283871799426e-05,2.9350795587837128e-05,1.0561410181496117e-07,2.887844946317087e-05,2.9825283871799426e-05,0.12190045248868807,15.08738109968405,-33.0,25.16,0.15300397790360162,0.0019113994366995565,0.1492778312135524,0.156173476317873,0.0003112810299125479,0.0005095208756387852,8.692406427070869e-07,0.0019462393687026086,0.00028700923002172217,0.0018492184370899048,1.1417084942668028e-07,0.01667863071312258,-0.7254983295918518,0.006083918010109203,-0.7359651677395491,-0.7160450093600899,0.04555296393761632,1.1245803220754005,-2.45208740234375,2.447509765625,34.62351351351357,0.014246772901456628,34.59,34.65,0.15384615384615385,-3.123903123904435e-05,2,3
88,0.0426562086718908,0.0001266427450515013,0.04197126499383968,0.043347372042818,0.04265618847772132,0.00012664268509669156,0.04197124512393483,0.04334735152144089,2.9349726928708332e-05,8.713690457945115e-08,2.887844946317087e-05,2.9825283871799426e-05,2.9349726928708332e-05,8.713690457945115e-08,2.887844946317087e-05,2.9825283871799426e-05,-0.16875070661390615,17.316942147056782,-38.36,34.54,0.14782919213945098,0.0014813345220733795,0.14359028780444594,0.1506735781883356,0.00042098908979897786,0.0005115405660110128,2.9062129027686746e-06,0.0018867305433356199,0.00031058760828612923,0.0016811737681925586,8.738710657743912e-08,0.01481726186718774,-0.741455576857525,0.0036133224074965976,-0.7475683589393001,-0.7360970078032878,0.052241275185032895,1.1248103606119395,-2.25677490234375,2.3284912109375,34.619189189189235,0.011321281493626337,34.59,34.63,0.1492368569813454,0.0001133731133731275,2,3
89,0.0426476434019634,0.00012831773812443868,0.04197126499383968,0.043347372042818,0.04264762321184886,0.00012831767737665647,0.04197124512393483,0.04334735152144089,2.9343833570126624e-05,8.828938837556789e-08,2.887844946317087e-05,2.9825283871799426e-05,2.9343833570126624e-05,8.828938837556789e-08,2.887844946317087e-05,2.9825283871799426e-05,0.06389705882352903,18.99529890414284,-40.42,28.86,0.14522725376532106,0.0008371077397637932,0.14333271575503384,0.14736001784222788,0.00027450573030759665,0.0003161001158261444,1.0275473254618844e-05,0.0012900470631538256,0.0001749773673053724,0.0013600569764538276,1.3612252731595722e-07,0.013802641643311865,-0.7491886606029927,0.0013625513083247833,-0.7519319399340987,-0.7476240274590902,0.05863518271644931,1.1516454633454585,-2.08587646484375,2.41546630859375,34.67327272727273,0.03438046725868569,34.63,34.73,0.14479638009049775,0.0009492595180668329,2,3
90,0.03976700302398317,0.0013320779659691574,0.030962408602012863,0.04678763966526387,0.03976698419761298,0.001332077335340962,0.03096239394388635,0.046787617515206034,2.7361800681928407e-05,9.16540071567782e-07,2.1303774194142445e-05,3.2192369893370815e-05,2.7361800681928407e-05,9.16540071567782e-07,2.1303774194142445e-05,3.2192369893370815e-05,-1.971158846806108,78.89686608242584,-569.87,338.19,0.31107260217871546,0.07188322376625121,0.1425410066576503,0.3666518326262824,0.06332971924728374,0.10036428578530404,1.4258246462183545e-06,0.4678717799935506,0.01813770536342541,0.06053430436019474,5.33799007218505e-08,0.40123317328367225,-0.30825182448513305,0.20361772533141514,-0.7528341171337268,-0.15788295946007844,-0.02534645639892301,1.0001893388630396,-2.239990234375,2.05535888671875,33.86396396396396,0.3737375850582705,33.68,34.77,0.1808931599773884,-0.007223236223236211,2,3
91,0.0390937379802239,0.0004239916201608669,0.03715489032241543,0.04128321146935048,0.039093719472588766,0.00042399141943606815,0.037154872732663616,0.0412831919251818,2.6898558734268012e-05,2.9172865238682874e-07,2.556452903297093e-05,2.8405032258856597e-05,2.6898558734268012e-05,2.9172865238682874e-07,2.556452903297093e-05,2.8405032258856597e-05,2.3777714932126632,125.05335620436148,-488.68,465.54,0.314709614989289,0.01614768697820499,0.28874148247723025,0.34522834354382365,0.01475348836842289,0.01902221854752392,4.700294776636936e-05,0.056623869341589965,0.0074580191798502265,0.04658873007574075,1.0995218024945076e-07,0.40607374067315616,-0.2489794720455752,0.03279408684458117,-0.31084266532194704,-0.2120298563675316,-0.05431701325665165,2.0455758092799132,-6.14776611328125,8.80584716796875,33.693181818181785,0.02140228612180697,33.66,33.73,0.10407239819004524,-0.00041435430426256536,2,3
92,0.03917940035379392,0.000235936222271992,0.037842943846904606,0.04197126499383968,0.03917938180560477,0.00023593611057580438,0.03784292593141665,0.04197124512393483,2.6957498976512306e-05,1.6233659558302466e-07,2.603794623728521e-05,2.887844946317087e-05,2.6957498976512306e-05,1.6233659558302466e-07,2.603794623728521e-05,2.887844946317087e-05,-0.04654041831543253,13.243265767962296,-34.77,21.26,0.2720803175938955,0.009183122751291408,0.2576208232578016,0.2891902575585917,0.000743748257062494,0.0010201125597170387,9.866037815335847e-06,0.004201427180053981,0.0005442025280738126,0.004087210733276636,1.1976152360375532e-07,0.041811727708741295,-0.3643454675288452,0.028297896635821683,-0.40470598640497996,-0.3119358576346499,0.2710101991759352,2.7854126536701926,-7.93609619140625,8.71124267578125,33.65549549549553,0.013270487389891722,33.63,33.68,0.13114754098360654,-0.00015487890487888553,2,3
93,0.03916845872496482,0.00017958439173180042,0.03853099737139378,0.03921905089588296,0.039168440181955616,0.0001795843067135213,0.03853097913016968,0.03921903232892271,2.694997055736096e-05,1.2356355668008433e-07,2.651136344159949e-05,2.698478064591377e-05,2.694997055736096e-05,1.2356355668008433e-07,2.651136344159949e-05,2.698478064591377e-05,0.02453619909502297,18.07677391612657,-41.59,27.93,0.2497237626535549,0.005444347693906136,0.2405196665998601,0.2589820990007187,0.0005971019069339412,0.0007790308389226464,1.2909496227344057e-06,0.0031123803134311396,0.0004569862240681646,0.003330275429105495,1.3336036835259746e-07,0.0325955552035908,-0.4320790367767172,0.016727955249415845,-0.4594227239958994,-0.4050738270386223,0.06576710064844317,1.592652804193646,-3.41949462890625,3.06243896484375,33.62563636363643,0.014986495298177891,33.59,33.66,0.12669683257918554,-0.00028816806798457483,2,3
94,0.03915055687987063,0.00020600028857818822,0.03853099737139378,0.03921905089588296,0.03915053834533648,0.00020600019105417464,0.03853097913016968,0.03921903232892271,2.6937653141411608e-05,1.4173909039856114e-07,2.651136344159949e-05,2.698478064591377e-05,2.6937653141411608e-05,1.4173909039856114e-07,2.651136344159949e-05,2.698478064591377e-05,0.05135669869983061,14.161538740714647,-42.12,26.24,0.2318396300711454,0.00496989545475174,0.2231647868951512,0.2420955976034332,0.00017280588957370398,0.0002496336856060272,7.8477021295085e-07,0.000998004855160224,0.00012703031983985724,0.0010474528478455214,1.3422877595927266e-07,0.010718606639993092,-0.4860352711622974,0.014785708293107769,-0.508602649351626,-0.4598723387455153,0.0016637775893295675,1.4575356625391347,-3.62396240234375,2.75726318359375,33.62855855855862,0.0119191606548045,33.61,33.65,0.14471452798191067,1.614601614601418e-05,2,3
95,0.03912954167041218,0.00023146325111156966,0.03853099737139378,0.03921905089588296,0.03912952314582703,0.00023146314153296021,0.03853097913016968,0.03921903232892271,2.692319356616674e-05,1.592589549251791e-07,2.651136344159949e-05,2.698478064591377e-05,2.692319356616674e-05,1.592589549251791e-07,2.651136344159949e-05,2.698478064591377e-05,-0.030305429864253768,12.465405033301936,-33.53,19.39,0.2180736693095172,0.003708506483016179,0.21077824651494315,0.22525482794615426,0.0004893044612050997,0.0005874637890234723,3.358467250385035e-07,0.0020500777183975914,0.00043650403611705736,0.0027084670272897915,1.1839219114448408e-07,0.02228495776685098,-0.5281024083646999,0.011373404962120932,-0.5491619062771991,-0.508949168279341,0.022716362465748114,1.4171764872873842,-3.06854248046875,2.9296875,33.646000000000036,0.010374794631043106,33.63,33.66,0.14479638009049775,9.232919324660608e-05,2,3
96,0.03911630987186437,0.0002966204694198152,0.03577878327343708,0.04128321146935048,0.03911629135354335,0.00029662032899468104,0.035778766335157565,0.0412831919251818,2.6914089389160706e-05,2.040905661799675e-07,2.4617694624342375e-05,2.8405032258856597e-05,2.6914089389160706e-05,2.040905661799675e-07,2.4617694624342375e-05,2.8405032258856597e-05,-0.0061368778280545475,21.06578718611903,-90.71,66.81,0.2059545151931552,0.003257395924616907,0.19980465156530405,0.21195034348684968,0.0007613900232234487,0.0009243314637692637,8.58565549635515e-06,0.003642848597079568,0.0005687541267286661,0.0039402915070027855,9.153618350105085e-08,0.039502706605316566,-0.5652113633027579,0.009339446820753869,-0.5804906054363872,-0.5495539377403216,0.05476945238991497,1.2370416127164905,-3.45916748046875,2.410888671875,33.65090090090093,0.010530911132396771,33.63,33.68,0.13574660633484165,5.019305019304557e-05,2,3
97,0.03908921480708109,0.0002692150971819148,0.03853099737139378,0.03921905089588296,0.039089196301587394,0.00026921496973094457,0.03853097913016968,0.03921903232892271,2.6895446551992082e-05,1.8523422107557602e-07,2.651136344159949e-05,2.698478064591377e-05,2.6895446551992082e-05,1.8523422107557602e-07,2.651136344159949e-05,2.698478064591377e-05,-0.166585641605427,20.16804908902324,-44.83,31.33,0.19573522432650092,0.0034582159910548785,0.18830422175078332,0.201100318728112,0.00026842542923699537,0.0003627368138840085,1.089444004595603e-06,0.0012889379980153507,0.0001670506320518029,0.0012946591707637108,1.059030143024664e-07,0.013254840220766529,-0.5957637568931641,0.010201268810707964,-0.6134522085406917,-0.5806716615726706,0.08971349054368795,0.888467075808929,-2.38494873046875,1.92718505859375,33.674181818181786,0.017958630145260692,33.65,33.71,0.14019219898247595,0.000382300565786829,2,3
98,0.03906182599549067,0.0002888935401649221,0.03853099737139378,0.03921905089588296,0.039061807502963314,0.0002888934033978479,0.03853097913016968,0.03921903232892271,2.68766016014888e-05,1.9877403030653827e-07,2.651136344159949e-05,2.698478064591377e-05,2.68766016014888e-05,1.9877403030653827e-07,2.651136344159949e-05,2.698478064591377e-05,0.3142647058823529,23.3914699912328,-51.23,36.83,0.1868590805334681,0.0016801561153188458,0.18366657082469573,0.19019589064411072,0.0008036507990472322,0.0010341344480133171,4.504996062249514e-06,0.004066522209929193,0.0006718639394792675,0.0037911593444618545,9.51354877654076e-08,0.03687644188855098,-0.6235121893423898,0.005583011824020219,-0.6334333669613069,-0.6137056745055817,0.05542893373491056,0.925682652687562,-2.42767333984375,1.80511474609375,33.747477477477474,0.0315791146761113,33.68,33.81,0.13574660633484165,0.0008854861354861365,2,3
99,0.0390073421191171,0.00031756316514885334,0.03853099737139378,0.03921905089588296,0.039007323652383324,0.00031756301480909284,0.03853097913016968,0.03921903232892271,2.683911381381689e-05,2.1850024814505e-07,2.651136344159949e-05,2.698478064591377e-05,2.683911381381689e-05,2.1850024814505e-07,2.651136344159949e-05,2.698478064591377e-05,-0.13990955342001138,25.70091831976244,-53.96,69.58,0.1808590471958272,0.001683430694465341,0.17744552319841256,0.1846472040812864,0.00040057065376384915,0.00047170313640746043,6.221727776615883e-06,0.001541985797653917,0.00028015568499358386,0.0017778395981101198,8.726434785888415e-08,0.016214821822377882,-0.6409188207554035,0.004759352850456379,-0.6463685687186908,-0.6335474415586659,0.033272933111855967,0.8919358635304586,-2.40936279296875,1.84783935546875,33.88345454545445,0.049072050249633146,33.81,33.97,0.13566986998304126,0.0014981854247909385,2,3
100,0.03894507483183295,0.0003368194068383593,0.03853099737139378,0.03921905089588296,0.0389450563945776,0.00033681924738236506,0.03853097913016968,0.03921903232892271,2.6796270627906124e-05,2.31749560563026e-07,2.651136344159949e-05,2.698478064591377e-05,2.6796270627906124e-05,2.31749560563026e-07,2.651136344159949e-05,2.698478064591377e-05,-0.13981900452488705,22.458283196409663,-51.6,37.91,0.17761926449591287,0.0013299058707331925,0.17479512761198912,0.180606066467922,0.0009240058872796523,0.0011088146974380366,6.81816521586842e-06,0.004145980153820593,0.0008607789792937303,0.0043238099702228175,8.730903123567446e-08,0.03088864760013658,-0.6515829984158092,0.0030519930594641105,-0.6586219163118676,-0.6463584430504168,0.008805417006273264,1.2660173668190182,-2.65960693359375,2.45208740234375,34.070900900900924,0.055985029362338116,33.97,34.16,0.13122171945701358,0.0017167427167427089,2,3
101,0.038921724599101266,0.00034084230909032734,0.03853099737139378,0.03921905089588296,0.03892170617290039,0.00034084214772982745,0.03853097913016968,0.03921903232892271,2.678020443318961e-05,2.3451753001536107e-07,2.651136344159949e-05,2.698478064591377e-05,2.678020443318961e-05,2.3451753001536107e-07,2.651136344159949e-05,2.698478064591377e-05,0.2273472850678736,22.075105763965286,-49.47,35.33,0.17416554129512626,0.0010330752454625683,0.1719923556986026,0.17711488243226936,0.001300403164203161,0.0014020358530080252,5.195323504429086e-06,0.005716791804902578,0.0009333181675669688,0.005055986053032196,1.1668563203517945e-07,0.04784941193063022,-0.6622841830293578,0.0012280486690242295,-0.6644925313357483,-0.6588571584225493,0.17921637877376628,1.0311695550796671,-2.19879150390625,2.46734619140625,34.2078181818182,0.03821902948631894,34.15,34.27,0.13122171945701358,0.0011335572436490212,2,3
102,0.038947716794135216,0.0003362591117730163,0.03853099737139378,0.03921905089588296,0.038947698355629126,0.00033625895258228224,0.03853097913016968,0.03921903232892271,2.6798088437658624e-05,2.3136404793358197e-07,2.651136344159949e-05,2.698478064591377e-05,2.6798088437658624e-05,2.3136404793358197e-07,2.651136344159949e-05,2.698478064591377e-05,-0.3780553985302431,16.089876429671122,-41.59,58.69,0.172050702908484,0.001049521983046109,0.16993272469347626,0.1744309939822566,0.00034638653464042743,0.000447319555108492,5.749066065582161e-06,0.0017790175305060574,0.00025334880986810994,0.0014716165039844926,1.0868556639051509e-07,0.013530131073912464,-0.6677902805765183,0.0021215173266235982,-0.6709063146957834,-0.6645153271418829,-0.06012587694726825,1.425364718793864,-2.77557373046875,2.31781005859375,34.30189189189185,0.0228395702738602,34.25,34.33,0.14471452798191067,0.0005408915408915227,2,3
103,0.036529882426301404,0.00809840633216322,0.00756858876938092,0.060548710155047376,-0.03652986513243888,0.00809840249824108,-0.06054868149026664,-0.00756858518628333,-2.513449055439132e-05,5.572131743704302e-06,-4.166071397965634e-05,-5.207589247457042e-06,-2.513449055439132e-05,5.572131743704302e-06,-4.166071397965634e-05,-5.207589247457042e-06,-0.07251696832579073,44.808112589008964,-222.82,192.64,6.393230899775998,0.2827092651554643,5.9490668290758855,7.220458679902513,1.1563512622846053,0.54619831450057,0.16617993988296131,2.159285630544856,0.7835653477888275,1.313967855089732,3.838558626512168e-08,4.877759967280923,1.9806372566064936,0.4292862325570008,1.4784613148806092,2.801340379322772,-0.2144568290154279,7.208416142085817,-16.37725830078125,12.85858154296875,32.63727272727279,0.013811002919877288,32.61,32.66,0.1945701357466064,-4.291864842322678e-05,3,0
104,0.031846604081447134,0.000461770818759755,0.030962408602012863,0.03302656917548038,-0.031846589004727366,0.00046177060014966593,-0.033026553540145435,-0.03096239394388635,-2.191214743407571e-05,3.1772273852308503e-07,-2.272402580708528e-05,-2.1303774194142445e-05,-2.191214743407571e-05,3.1772273852308503e-07,-2.272402580708528e-05,-2.1303774194142445e-05,-0.012261164499717215,13.20858763930845,-33.58,19.47,5.953041747017091,0.12701436645017974,5.685740872339434,6.111773751892632,0.02327613013284819,0.033786862434816614,0.00040567169914710325,0.15450185422528478,0.007873475289459708,0.018536277931896564,1.1639976027488785e-07,0.1014738059086917,2.8462390625424816,0.06451090470074809,2.704328457779164,2.9208186834557384,0.1977138146534662,1.8300512333615435,-3.399658203125,5.18951416015625,32.58819819819825,0.027841190503379173,32.55,32.65,0.10853589598643301,-0.0007830817830818157,3,0
105,0.029313882171166768,0.005968211686792301,0.006880535244891746,0.05298012138566645,-0.02931386829348028,0.0059682088613402145,-0.05298009630398332,-0.006880531987530299,-2.0169500847154212e-05,4.106445197871314e-06,-3.64531247321993e-05,-4.7341720431427655e-06,-2.0169500847154212e-05,4.106445197871314e-06,-3.64531247321993e-05,-4.7341720431427655e-06,0.4178337104072399,36.273050946973854,-125.72,178.35,5.432799061190375,0.12628915941225696,5.149789153696277,5.679596501899363,0.10321733381852533,0.13359392006047655,2.215155571932021e-05,0.4263276590398011,0.11081165832567552,0.3369649254319828,6.326876844653384e-08,2.039145800894892,2.450278875628616,0.1951481497931355,2.005181374070756,2.700830955149531,0.07150401720006172,2.392760230658145,-3.92303466796875,5.5328369140625,32.55581818181824,0.02006271159874077,32.53,32.59,0.0904977375565611,0.0003895137840092383,3,0
106,0.027927975939774245,0.00899422974345762,0.006880535244891746,0.05504428195913397,-0.0279279627181993,0.008994225485437553,-0.0550442559002424,-0.006880531987530299,-1.921592408291237e-05,6.188505615561328e-06,-3.787337634514213e-05,-4.7341720431427655e-06,-1.921592408291237e-05,6.188505615561328e-06,-3.787337634514213e-05,-4.7341720431427655e-06,-0.3692255511588471,50.92530725111171,-283.57,149.34,4.85484581549238,0.12206837183554325,4.591183103575589,5.213635025472788,0.17732663385095165,0.1208154424435708,0.023671605671907257,0.4487598180371573,0.12626902998417688,0.3265859790571607,3.617476096451355e-08,1.759387516478596,2.0250213463260303,0.10305807321842636,1.8531672359223528,2.1713938901203687,-0.0018411209758071813,2.326970102699978,-5.68695068359375,5.93414306640625,32.61198198198201,0.018396034620684933,32.55,32.65,0.09044657998869417,0.00034047034047032543,3,0
107,0.03537871595263658,0.007972226323570277,0.0013761070489783493,0.04747569318975305,-0.03536780243363967,0.008020426468820691,-0.04747567071395907,0.0034402659937651497,-2.4334929597331306e-05,5.518480087235563e-06,-3.2665787097685084e-05,2.3670860215713828e-06,-2.4334929597331306e-05,5.518480087235563e-06,-3.2665787097685084e-05,2.3670860215713828e-06,-0.26855769230769266,48.487022225888175,-240.18,345.41,4.481912531426242,0.170858414303064,3.938778669066098,4.7894904144513335,0.2824476837792662,0.12339150235753413,0.07061875250238557,0.4660467921853678,0.2284447815371382,0.41349221019361376,2.713927038655584e-08,3.0879064944300088,1.6930262655436603,0.1265812802519385,1.4098085651767167,1.8644028283423475,0.018076178564475843,3.3747998275470827,-9.98382568359375,6.90460205078125,32.66918918918916,0.0236770742932982,32.61,32.71,0.11764705882352942,0.0005015795015795087,3,0
108,0.0373961760606414,0.0014237890438044858,0.02889824802854533,0.05504428195913397,-0.0373961583566611,0.0014237883697587278,-0.0550442559002424,-0.028898234347627262,-2.573054637837538e-05,9.796421421598598e-07,-3.787337634514213e-05,-1.9883522581199616e-05,-2.573054637837538e-05,9.796421421598598e-07,-3.787337634514213e-05,-1.9883522581199616e-05,-0.04001695873374934,20.33395352530312,-64.06,41.72,3.954749682735789,0.1787276915098251,3.6232698915991115,4.263778052810458,0.1106657079536442,0.14504148011543191,0.0010990447719610836,0.43440199054697376,0.05259351211479457,0.1270730298792074,5.149029469464495e-08,0.562346894611359,1.5444902941410283,0.07361291940257067,1.4070258942709797,1.6381775599752768,-0.017511198078240524,2.1943923412497965,-5.01861572265625,6.21490478515625,32.65700000000002,0.013588096394872774,32.63,32.71,0.11305822498586772,-2.565200730336153e-05,3,0
109,0.03796358671601716,0.000261637247787531,0.037842943846904606,0.03853099737139378,-0.03796356874341554,0.00026163712392404464,-0.03853097913016968,-0.03784292593141665,-2.6120954909987784e-05,1.8002026002848086e-07,-2.651136344159949e-05,-2.603794623728521e-05,-2.6120954909987784e-05,1.8002026002848086e-07,-2.651136344159949e-05,-2.603794623728521e-05,0.1301640271493211,11.560862941525302,-28.42,20.13,3.372301867776299,0.134303729986467,3.152200420396611,3.618115800397364,0.0009072147887351332,0.0013047159875513744,1.1848812776138812e-05,0.004285343499105964,0.0006412741280711923,0.0035753359837349626,1.5303739228991753e-07,0.03492843946079949,1.300146851377768,0.08042996872281506,1.1677832372076584,1.4498183411488044,0.1810006504189985,1.7886098183674095,-2.88543701171875,3.7994384765625,32.766936936936915,0.03355223956469823,32.71,32.81,0.1085972850678733,0.0010014040014040331,3,0
110,0.037351032277360884,0.0012475445639682876,0.030962408602012863,0.04541153261628554,-0.03735101459475144,0.0012475439733596453,-0.045411511117699976,-0.03096239394388635,-2.5699485068589624e-05,8.583766214551689e-07,-3.124553548474225e-05,-2.1303774194142445e-05,-2.5699485068589624e-05,8.583766214551689e-07,-3.124553548474225e-05,-2.1303774194142445e-05,-0.11765837104072426,20.03575480886903,-157.94,80.39,2.951931084071607,0.1214051784741561,2.7310627122959183,3.148926106691808,0.005978446931995622,0.007992285115479244,8.318629120708609e-07,0.03098439299931257,0.006047674418796134,0.027084418607644718,6.996761980904154e-08,0.2670645755206962,1.0397530297870383,0.07644903793152043,0.8947820127648441,1.1655684493486396,0.016520309566576297,3.970600158140628,-12.97607421875,8.08868408203125,32.819090909090875,0.018999782512891642,32.77,32.84,0.11312217194570134,-0.0003779726348533618,3,0
111,0.04036114200037433,0.0028849361717151662,0.029586301553034506,0.05366817491015562,-0.04036112289272891,0.0028849348059377003,-0.05366814950273634,-0.029586287546380288,-2.7770599711606157e-05,1.9849886214194047e-06,-3.692654193651357e-05,-2.0356939785513888e-05,-2.7770599711606157e-05,1.9849886214194047e-06,-3.692654193651357e-05,-2.0356939785513888e-05,0.1030582249858674,19.32917868524499,-54.59,67.58,2.6080164754960813,0.0865521742470078,2.4618811403346017,2.834874341324168,0.023597121300374092,0.030707039449402906,5.183966529862545e-05,0.1249136705901708,0.016717892927167834,0.0892165379558855,2.8128424034434832e-08,0.8775794421075238,0.8129514312727528,0.03223234060531252,0.7514549745051571,0.8915108656881572,0.09122463333213504,1.6535525283103558,-4.59136962890625,3.778076171875,32.74603603603604,0.025158212145163863,32.71,32.79,0.10853589598643301,-0.0007223587223587456,3,0
112,0.03144653676064665,0.007314634570169036,0.01513717753876184,0.04472347909179635,-0.03144652187332573,0.007314631107297644,-0.04472345791894695,-0.01513717037256666,-2.163687996459884e-05,5.03285533107453e-06,-3.077211828042797e-05,-1.0415178494914083e-05,-2.163687996459884e-05,5.03285533107453e-06,-3.077211828042797e-05,-1.0415178494914083e-05,-0.20179864253393728,26.149039619252328,-85.1,114.32,2.3784901427986123,0.06065662179180619,2.279513202867516,2.5575038705986293,0.034493532208060285,0.03958821628754982,3.1572892579603025e-05,0.1488236197455097,0.02830236944643375,0.09591496324916472,3.314490504280343e-08,0.7775210207727656,0.6628692200146601,0.05013833115957832,0.604021419988384,0.7502688674117528,-0.03499265861491508,1.8925079643592728,-3.0670166015625,4.79583740234375,32.67472727272725,0.01857217326633489,32.65,32.71,0.11312217194570134,-0.00028780740707348587,3,0
113,0.024473378925919758,0.009452001510512693,0.0,0.05298012138566645,-0.022684740359340646,0.01317909373754012,-0.05298009630398332,0.015825223571319692,-1.5608308167126153e-05,9.067917602780497e-06,-3.64531247321993e-05,1.088859569922836e-05,-1.5608308167126153e-05,9.067917602780497e-06,-3.64531247321993e-05,1.088859569922836e-05,0.1704635387224412,38.20309240514364,-117.7,116.69,2.2702807666333435,0.05197824972533314,2.1505154971896507,2.4055902025009672,0.02065735375812396,0.03099435744610529,0.0010902721450303748,0.1228583507300032,0.01721308219279552,0.12712758637783414,7.709785476706088e-08,1.330308005164228,0.6106914558482691,0.036625880561681916,0.523143446792351,0.6507968746474535,0.09185503858184264,2.0137624632434576,-3.302001953125,7.09075927734375,32.782072072072076,0.056074550073779976,32.66,32.87,0.10853589598643301,0.0016855036855037053,3,0
114,0.033415739721005505,0.007908018415915928,0.0020641605734675237,0.05435622843464479,-0.03339237367975433,0.00800604021616913,-0.054356202701489366,0.004128319192518179,-2.297572952431115e-05,5.508581580080619e-06,-3.739995914082785e-05,2.84050322588566e-06,-2.297572952431115e-05,5.508581580080619e-06,-3.739995914082785e-05,2.84050322588566e-06,0.23746606334841605,28.168703173711577,-161.73,146.34,2.0685518119984314,0.03675294848042585,1.9880996206025807,2.1454002865620296,0.019393741063240932,0.018655602694143517,0.0006048433238383119,0.05700265357679625,0.011889708259049104,0.05856410383715713,8.389711994571947e-08,0.5691098807308757,0.4894252515703093,0.019183444241121214,0.4637725064070022,0.5206590761760547,0.06263519119863832,1.6946798558478977,-3.3660888671875,4.345703125,32.827818181818145,0.01245952123564528,32.79,32.84,0.13574660633484165,-0.00023010166129433575,3,0
115,0.03320460788407713,0.008046773255208695,0.004816374671424223,0.04678763966526387,-0.033204592164455635,0.00804676944573053,-0.046787617515206034,-0.00481637239127121,-2.2846525852043788e-05,5.536605456763023e-06,-3.2192369893370815e-05,-3.313920430199936e-06,-2.2846525852043788e-05,5.536605456763023e-06,-3.2192369893370815e-05,-3.313920430199936e-06,-0.13919163369135049,45.84221796512007,-152.58,185.1,2.077044128397691,0.032853761197645784,2.033068106957016,2.154970774480487,0.0150672005920695,0.01723369676762768,0.00034382284321176975,0.05879702055517243,0.012163630339903609,0.05385624483154376,5.481473475121845e-08,0.5091893275031297,0.4989456520952332,0.006875340787647755,0.4895871095490837,0.5143207433064879,0.04054363283471527,3.721241633400632,-13.02642822265625,9.234619140625,32.84045045045042,0.020941247172276287,32.81,32.87,0.10401356698699828,0.00044471744471744247,3,0
116,0.03701401058493541,0.0021607425800072282,0.021329659259164413,0.05298012138566645,-0.03701399306187846,0.002160741557075243,-0.05298009630398332,-0.02132964916134393,-2.5467596324847847e-05,1.4867051400242227e-06,-3.64531247321993e-05,-1.4675933333742575e-05,-2.5467596324847847e-05,1.4867051400242227e-06,-3.64531247321993e-05,-1.4675933333742575e-05,0.8536877828054295,33.391325848837525,-111.65,124.46,2.0179833985121096,0.0398519154735676,1.8706677802014464,2.069290575267903,0.01453654237267833,0.014943477172469459,0.0008942865327793783,0.05201044135461101,0.01310775177857748,0.03220135645428921,7.007702007566508e-08,0.2379676356485616,0.4630639246230259,0.036894981979585816,0.3686143761339987,0.4994132805116756,0.037576681134521055,1.4939136312160337,-3.63311767578125,3.50189208984375,32.833999999999946,0.01037479463104652,32.79,32.87,0.09502262443438916,-0.00020864233708276961,3,0
117,0.03833329873426666,0.0013166448816331665,0.031650462126502035,0.042659318518328826,-0.03833328058663659,0.001316644258311263,-0.04265929832268786,-0.031650447142639385,-2.63753363263327e-05,9.059212935508756e-07,-2.935186666748515e-05,-2.177719139845672e-05,-2.63753363263327e-05,9.059212935508756e-07,-2.935186666748515e-05,-2.177719139845672e-05,-0.9587386877828042,25.981892862598947,-127.18,95.27,1.8187908775754973,0.057568780343149877,1.7269665368595144,1.901170808245616,0.02551114440914608,0.008351576105616437,0.007810579040412519,0.046884577933970766,0.017915608275615686,0.03773445479741072,3.2264421245820074e-08,0.2348204818030133,0.33186831240597103,0.033870781965619615,0.284028679361065,0.3689166216967337,0.03836193517600036,1.9515005107118053,-4.84771728515625,5.596923828125,32.81558558558554,0.013993865109150528,32.79,32.83,0.10407239819004524,0.00013899613899613278,3,0
118,0.03832084527680973,0.002000326912571276,0.019953552210186062,0.04472347909179635,-0.03832082713507527,0.0020003259655827733,-0.04472345791894695,-0.01995354276383787,-2.636676768915057e-05,1.3763306791679705e-06,-3.077211828042797e-05,-1.372909892511402e-05,-2.636676768915057e-05,1.3763306791679705e-06,-3.077211828042797e-05,-1.372909892511402e-05,0.09523459581684596,12.055043682848627,-28.3,24.77,1.6523757520097473,0.0417670979361845,1.5828232279472156,1.724731709533185,0.0018569789281803989,0.0039287378696226645,1.4060705060784478e-05,0.028417487386593814,0.0038415971996197,0.035163082404442256,9.922640693826867e-08,0.36949177229751695,0.25415081860230143,0.02433591505236447,0.21210100747305946,0.2871466707304866,0.16123769349984327,1.7329384040496618,-2.886962890625,3.63311767578125,32.842181818181814,0.01216416631540112,32.83,32.87,0.10853589598643301,0.000183937064670993,3,0
119,0.039286766570804224,0.003609699530767343,0.02064160573467524,0.05022790728770975,-0.03928674797178624,0.0036096978218746975,-0.050227883508971186,-0.020641595962590898,-2.7031372610591713e-05,2.483664132872706e-06,-3.4559455914942184e-05,-1.4202516129428297e-05,-2.7031372610591713e-05,2.483664132872706e-06,-3.4559455914942184e-05,-1.4202516129428297e-05,-0.2659558823529429,97.4603888482304,-815.51,378.75,1.4875322544281144,0.09292564476311242,1.361321421573874,1.6631564307505724,0.02977820577923073,0.016418863640514342,0.0013813895451694198,0.056426762826058977,0.01973607911737064,0.06634870622984439,4.779848128411147e-08,0.3915734418806192,0.1256516550166539,0.04516667216997332,0.07916323769151723,0.21112921436587467,-0.025140359718107005,1.956925386056785,-4.63104248046875,4.29534912109375,32.84441441441441,0.01877724733420356,32.81,32.89,0.09502262443438916,-0.0003674096174096221,3,0
120,0.04190829060346312,0.0014109598113782602,0.036466836797926255,0.04747569318975305,-0.04190827076337108,0.0014109591434060787,-0.04747567071395907,-0.03646681953391059,-2.8835119752945635e-05,9.708149519303886e-07,-3.2665787097685084e-05,-2.5091111828656657e-05,-2.8835119752945635e-05,9.708149519303886e-07,-3.2665787097685084e-05,-2.5091111828656657e-05,-0.35360655737704977,97.89294851817353,-564.25,597.3,1.32928353313693,0.02309166970957072,1.289143883335652,1.3754628097981432,0.009302781138951112,0.007074617756163473,0.0002121167939149625,0.020115963698246784,0.0075561325078339235,0.02707421854339252,7.844103730447749e-08,0.19412590789676068,0.050333941991659685,0.015182602890320428,0.025185260952042654,0.07861406392757342,0.09995575842668264,1.94024275758464,-4.52117919921875,4.72564697265625,32.821999999999946,0.01033968524226234,32.81,32.84,0.14471452798191067,-8.006672226854684e-05,3,0
121,0.040225445926611834,0.003561406043437464,0.02889824802854533,0.05504428195913397,-0.04022542688320693,0.0035614043574078024,-0.0550442559002424,-0.028898234347627262,-2.7677233638196754e-05,2.4504356601674e-06,-3.787337634514213e-05,-1.9883522581199616e-05,-2.7677233638196754e-05,2.4504356601674e-06,-3.787337634514213e-05,-1.9883522581199616e-05,0.5619117647058811,51.622011600084676,-264.29,290.62,1.2496748415336894,0.04768384781017173,1.162249102827919,1.3660044548628365,0.020160495067422617,0.01237530921492527,0.001823727056660075,0.044592713321654376,0.01540369476557452,0.06074128754989942,4.2141558909136734e-08,0.40392589572772986,-0.009100059254313857,0.03230573400544818,-0.0519486826534199,0.029610346878763905,-0.007951483326897973,1.5710730092853722,-2.82440185546875,3.32794189453125,32.8766666666666,0.03168918118544845,32.81,32.95,0.10407239819004524,0.0007948402948402812,3,0
122,0.03940273939337168,0.0025944563971055648,0.03371462269996956,0.0460995861407747,-0.039402720739449525,0.0025944551688461656,-0.046099564316453005,-0.03371460673889847,-2.71111680443508e-05,1.7851231779459297e-06,-3.171895268905653e-05,-2.319744301139956e-05,-2.71111680443508e-05,1.7851231779459297e-06,-3.171895268905653e-05,-2.319744301139956e-05,0.0025735294117646963,33.81568648044743,-268.89,292.91,1.1412268912712769,0.04229743497792048,1.0798238935896185,1.2255899186132773,0.012284215556318262,0.0156294379416765,0.00016285494119190228,0.06418721526737378,0.00909052938589952,0.04378011186447136,4.486102744838405e-08,0.3369732192547866,-0.06693810506267392,0.02225546554203604,-0.09116395371209672,-0.027604689271759297,0.07694778071602601,1.8133064252748348,-3.45611572265625,4.608154296875,33.085636363636354,0.06995488510756873,32.95,33.21,0.11312217194570134,0.002145571760250639,3,0
123,0.03949302695993297,0.004108805928199376,0.013761070489783492,0.06123676367953655,-0.03949300826326771,0.0041088039830213426,-0.061236734689019676,-0.0137610639750606,-2.7173290663921235e-05,2.827075723567024e-06,-4.2134131183970615e-05,-9.468344086285533e-06,-2.7173290663921235e-05,2.827075723567024e-06,-4.2134131183970615e-05,-9.468344086285533e-06,-0.04087054833239083,43.964817827337036,-286.28,350.83,1.0402775040516694,0.0283878836931286,0.9723950183170168,1.0816113002671603,0.016199223860560698,0.01930063766293224,1.1815544290888171e-06,0.0591507476024908,0.015795865452509054,0.057293988338092836,4.574686421343621e-08,0.3294303209498037,-0.13225430000625255,0.031164364588270082,-0.19245412705617404,-0.09168570224549977,-0.1320204756003774,4.1686226582874415,-13.262939453125,12.06817626953125,33.245135135135136,0.019858275551131788,33.18,33.27,0.10853589598643301,0.0004420849420849817,3,0
124,0.027733849756332928,0.013511099044615348,0.0,0.07568588769380921,-0.0277244965379898,0.013530247976235902,-0.0756858518628333,0.0020641595962590893,-1.907592852678122e-05,9.309530399970799e-06,-5.207589247457043e-05,1.4202516129428296e-06,-1.907592852678122e-05,9.309530399970799e-06,-5.207589247457043e-05,1.4202516129428296e-06,-0.21510180995475187,80.43200306654884,-346.01,596.91,0.9844733228010258,0.03012372892770595,0.9157079434249268,1.0890974807546243,0.038476149829518594,0.017678239960780346,0.00434401677507579,0.07691735663408998,0.02783786772121719,0.0843686770562904,4.215733140355837e-08,0.4433871537945555,-0.18863666161900355,0.010805965173302422,-0.20407015364396985,-0.17107187943108434,0.31913328954739845,1.9386349444982005,-4.20379638671875,6.44073486328125,33.27509090909089,0.013865946156317371,33.25,33.29,0.13574660633484165,-0.00018465838649322648,3,0
125,0.024025118659621102,0.02069987171529718,0.0,0.05848454958157984,-0.023714122789113112,0.0210554136449402,-0.05848452189400755,0.00756858518628333,-1.6316578040671333e-05,1.4487244709469302e-05,-4.024046236671351e-05,5.207589247457042e-06,-1.6316578040671333e-05,1.4487244709469302e-05,-4.024046236671351e-05,5.207589247457042e-06,0.2804522328999444,25.795657495799446,-313.8,156.09,0.9414288683431752,0.06778719541552806,0.8636621842774562,1.0255621026887676,0.034916284810478086,0.020135488835362345,0.006926552625464346,0.06849766722167963,0.02563439068925355,0.05016736755288501,2.7808803926276934e-08,0.4112610857698661,-0.21116878944209824,0.021927010870576386,-0.2405156698145345,-0.181546092730061,-0.0336441230951427,2.3197856470687626,-4.09088134765625,5.25970458984375,33.248378378378376,0.018431296364029816,33.21,33.27,0.11305822498586772,6.949806949807913e-05,3,0
126,0.04186385392327508,0.00025398737944102613,0.04128321146935048,0.042659318518328826,-0.041863834104220086,0.0002539872591991147,-0.04265929832268786,-0.0412831919251818,-2.8804544967474946e-05,1.7475674613446554e-07,-2.935186666748515e-05,-2.8405032258856597e-05,-2.8804544967474946e-05,1.7475674613446554e-07,-2.935186666748515e-05,-2.8405032258856597e-05,0.08751131221719474,7.3125999180926895,-24.5,15.51,0.8326936194355999,0.0191727096627702,0.7999506887524526,0.8646068729630957,0.0005575909725788941,0.0011563552032282268,7.569072204217244e-07,0.00619280892646374,5.3182598792956896e-05,0.0004015299153407483,8.649692892492844e-08,0.004068190112837639,-0.24271626831183585,0.01111903620417681,-0.2619809224981845,-0.2275095068628595,0.14147594550313744,1.7908422691803374,-2.960205078125,3.68194580078125,33.32513513513513,0.031447507094508866,33.27,33.39,0.11312217194570134,0.0008655668655668607,3,0
127,0.0421129230724116,0.0007363764908493251,0.03715489032241543,0.0488518002387314,-0.04211290313544287,0.0007363761422362801,-0.04885177711146513,-0.037154872732663616,-2.8975917711117967e-05,5.066659601510888e-07,-3.3612621506313634e-05,-2.556452903297093e-05,-2.8975917711117967e-05,5.066659601510888e-07,-3.3612621506313634e-05,-2.556452903297093e-05,-0.001345392877331984,9.508027604037727,-45.74,37.84,0.7688059451099628,0.016846256430711408,0.7409433780013982,0.7995309543569438,4.9577550217490286e-05,0.00010068710497567856,2.4991239291909606e-07,0.0003876990673780022,3.8650763126162953e-05,0.0003987034707421958,1.6682789960320638e-07,0.004201211335194055,-0.28122418854977743,0.0102485595732706,-0.29770115231281424,-0.2623572987022009,0.0521165632694955,4.39275654012647,-16.66107177734375,10.07232666015625,33.43709090909084,0.020817189337200927,33.39,33.47,0.12662521198417184,0.0005113270067398934,3,0
128,0.042267812949530616,0.00034073475911431067,0.04197126499383968,0.042659318518328826,-0.0422677929392344,0.0003407345978047315,-0.04265929832268786,-0.04197124512393483,-2.9082490136071033e-05,2.3444352994537386e-07,-2.935186666748515e-05,-2.887844946317087e-05,-2.9082490136071033e-05,2.3444352994537386e-07,-2.935186666748515e-05,-2.887844946317087e-05,-0.04893099547511308,7.1871232295338725,-16.8,10.21,0.7132967716092169,0.01603990508303799,0.6852844543235445,0.7402988980499341,1.0615742024636086e-06,1.669111351358295e-06,2.374035361926884e-07,9.396558151854421e-06,3.112348472296156e-07,2.3380363599007486e-07,1.310571355066421e-07,2.184289395943969e-06,-0.3147239514821309,0.00961852181857015,-0.3308392982913313,-0.2979897681402018,-0.04184062038552383,1.5059288034201013,-3.24249267578125,3.704833984375,33.43630630630625,0.010732448729252431,33.41,33.45,0.1085972850678733,-7.335907335908483e-05,3,0
129,0.03689570273909557,0.003417900103487302,0.02889824802854533,0.04953985376322058,-0.03689568527204723,0.003417898485395802,-0.049539830310218164,-0.028898234347627262,-2.5386194271617528e-05,2.3516959858897154e-06,-3.408603871062791e-05,-1.9883522581199616e-05,-2.5386194271617528e-05,2.3516959858897154e-06,-3.408603871062791e-05,-1.9883522581199616e-05,-0.08755656108597226,21.1017304656512,-89.41,56.43,0.6595139271027807,0.02286860821823481,0.6261496669340705,0.6969091894855095,0.0025463610057499635,0.0034411114740882623,5.609772437633911e-07,0.010599111199293862,0.0019598922475667553,0.006597599083986837,6.455539172320335e-08,0.0419038382152858,-0.3502327345530183,0.010730754253876307,-0.3667220476079502,-0.33116233934924816,0.10013976741534776,2.3542056502248645,-5.71441650390625,6.20880126953125,33.41672727272723,0.02750567184184294,33.34,33.45,0.0904977375565611,-0.0007050920812389113,3,0
130,0.033496933449284366,0.002043115266828398,0.028210194504056162,0.036466836797926255,-0.03349691759127001,0.0020431142995831586,-0.03646681953391059,-0.02821018114887423,-2.304766129704037e-05,1.405771329246255e-06,-2.5091111828656657e-05,-1.941010537688534e-05,-2.304766129704037e-05,1.405771329246255e-06,-2.5091111828656657e-05,-1.941010537688534e-05,0.055715093273035095,19.596432098746842,-47.52,99.7,0.6048600579001687,0.013280609434004128,0.5784466624265424,0.6265055875926397,4.079783995191882e-05,7.155947650270357e-05,2.98341829448072e-07,0.0002620904653947713,3.1622407120495725e-05,0.00022329419571781933,1.030263130667468e-07,0.0017282542892118873,-0.3807697329900643,0.008094349870975211,-0.39600382332866696,-0.3669658722056888,-0.09282198604094233,2.9003053649795865,-10.35003662109375,6.817626953125,33.29288288288287,0.030855296897678675,33.23,33.34,0.10853589598643301,-0.000884257634257614,3,0
131,0.01796722574582366,0.01058103434277718,0.0006880535244891746,0.04816374671424223,-0.006067944273165878,0.0199489129878894,-0.0481637239127121,0.03509071313640453,-4.175068467006921e-06,1.3725913392963235e-05,-3.313920430199936e-05,2.4144277420028103e-05,-4.175068467006921e-06,1.3725913392963235e-05,-3.313920430199936e-05,2.4144277420028103e-05,0.055865384615384636,31.545034665283122,-124.93,183.76,0.5840601405762204,0.021049827919792163,0.5548135195761077,0.6485783499632533,0.009397939192442856,0.011943898590993794,1.8348246284918811e-06,0.04561779166506734,0.00728709603041371,0.03681530071195596,3.6058584451659215e-08,0.303607420529983,-0.4028435110147293,0.00851702220025156,-0.4136683464809801,-0.3864672537892227,0.1526646500178126,2.0174507627852267,-4.75921630859375,6.56280517578125,33.224727272727286,0.015765848644175514,33.18,33.25,0.0995475113122172,-0.0001335347023420147,3,0
132,0.008362496682253051,0.00369783618696385,0.003440267622445873,0.017201338112229368,0.008362492723306088,0.0036978344363458025,0.0034402659937651497,0.01720132996882575,5.7538398678196574e-06,2.544306812386846e-06,2.3670860215713828e-06,1.1835430107856916e-05,5.7538398678196574e-06,2.544306812386846e-06,2.3670860215713828e-06,1.1835430107856916e-05,0.13045788581119255,21.249940310880987,-75.86,83.96,0.5918150260986713,0.004443050580046304,0.5770058715518304,0.5984520448274878,7.679959247003766e-05,0.0001858580168226205,2.603045720537986e-07,0.0009928008334168178,2.808187604184745e-07,1.355298093743967e-07,1.1916305479055753e-07,7.293167060504461e-07,-0.3886774674444698,0.0024157235935638108,-0.3935059232521298,-0.3855023509164784,0.0834612056987385,1.3836499791726284,-2.50091552734375,2.85491943359375,33.19324324324321,0.02337173784770725,33.16,33.23,0.10401356698699828,-0.0004026851526851637,3,0
