Unnamed: 0,net_acc_mean,net_acc_std,net_acc_min,net_acc_max,ACC_x_mean,ACC_x_std,ACC_x_min,ACC_x_max,ACC_y_mean,ACC_y_std,ACC_y_min,ACC_y_max,ACC_z_mean,ACC_z_std,ACC_z_min,ACC_z_max,BVP_mean,BVP_std,BVP_min,BVP_max,ECG_mean,ECG_std,ECG_min,ECG_max,EDA_mean,EDA_std,EDA_min,EDA_max,EDA_phasic_mean,EDA_phasic_std,EDA_phasic_min,EDA_phasic_max,EDA_smna_mean,EDA_smna_std,EDA_smna_min,EDA_smna_max,EDA_tonic_mean,EDA_tonic_std,EDA_tonic_min,EDA_tonic_max,EMG_mean,EMG_std,EMG_min,EMG_max,Resp_mean,Resp_std,Resp_min,Resp_max,TEMP_mean,TEMP_std,TEMP_min,TEMP_max,c_ACC_x_mean,c_ACC_x_std,c_ACC_x_min,c_ACC_x_max,c_ACC_y_mean,c_ACC_y_std,c_ACC_y_min,c_ACC_y_max,c_ACC_z_mean,c_ACC_z_std,c_ACC_z_min,c_ACC_z_max,c_Temp_mean,c_Temp_std,c_Temp_min,c_Temp_max,BVP_peak_freq,TEMP_slope,subject,label
0,0.02596117792146391,0.013811331379276945,0.0,0.08738279761012517,0.023430779941925082,0.017768887587311488,-0.03784292593141665,0.0873827562416348,1.6121623088319984e-05,1.2225939942732648e-05,-2.603794623728521e-05,6.012398494791312e-05,1.6121623088319984e-05,1.2225939942732648e-05,-2.603794623728521e-05,6.012398494791312e-05,-0.5058184902459708,113.32994582081974,-392.28,554.77,0.0020283436826978693,0.13899618458556362,-0.435882568359375,0.9792938232421876,1.3036251579539295,0.15173628980675247,1.014137872636249,1.6783994645961535,1.9673620869611976,1.166933042542044,0.36797708316668265,4.459366787884756,1.3765354163282144,2.4481345527396465,3.096901934895868e-08,17.41882122027924,0.8029562945462451,1.169597634516809,-1.213172941862477,2.5547503021729274,-0.0026382554367549806,0.014499984829008297,-0.245819091796875,0.1305084228515625,0.09286154907845057,2.8902671464681617,-8.80584716796875,6.74285888671875,35.80728506787336,0.02498606314912744,35.75,35.87,0.7713059969049935,0.12503431605972642,0.5390000343322754,1.145400047302246,-0.13226016487673167,0.04357444788320166,-0.2778000235557556,0.04299998283386231,-0.44045635414720136,0.2442039105505931,-0.8700000047683716,0.6109999418258667,29.168922743818502,0.06428986859834335,28.99456787109375,29.42620849609375,0.08142493638676844,-0.0002532824885766032,2,0
1,0.027639992996480508,0.010596568051246721,0.0027522140979566985,0.05435622843464479,0.027639979911241515,0.010596563034652676,0.00275221279501212,0.054356202701489366,1.9017776591399224e-05,7.290999091780887e-06,1.8936688172571063e-06,3.739995914082785e-05,1.9017776591399224e-05,7.290999091780887e-06,1.8936688172571063e-06,3.739995914082785e-05,0.5236612948826704,41.901619064922436,-289.26,209.89,0.0005580944305442012,0.15371070902916198,-0.3029022216796875,0.862701416015625,0.8925488444592031,0.14209268670878933,0.6939961352625407,1.1909666436032378,0.16526729419171174,0.12813202479653338,0.0027887371005067443,0.5443458456701337,0.10795162612076556,0.22335939883046,2.7872847141452443e-08,1.3008099949767329,1.356137547043924,0.42492104669753705,0.9124406813491884,2.037179172222012,-0.0027302649407953306,0.008761860433544802,-0.06756591796875,0.0463714599609375,0.03785310961593456,1.5966038535319098,-2.9144287109375,3.73077392578125,35.70683257918552,0.024640657773683,35.66,35.75,0.6197434545808267,0.0060928420447489895,0.5808000564575195,0.6441999673843384,-0.10905918201157946,0.00800159512055074,-0.14459997415542605,-0.07059997320175171,-0.715456240465409,0.0071687251731791125,-0.7594000101089478,-0.6809999942779541,28.88660532438869,0.07484635193871393,28.730682373046875,29.207275390625,0.14701724625388746,-0.00016098369039545314,2,0
2,0.028389212954998282,0.006936934571683168,0.0,0.06605313835096077,0.028377524404226744,0.006984538172483501,-0.00275221279501212,0.06605310708029087,1.9525246439020825e-05,4.805733831389959e-06,-1.8936688172571063e-06,4.544805161417056e-05,1.9525246439020825e-05,4.805733831389959e-06,-1.8936688172571063e-06,4.544805161417056e-05,0.0952304212609561,58.836497604736785,-367.11,363.29,0.001482968985658436,0.18462747187331985,-1.4994049072265625,1.4157257080078125,0.5987120030364941,0.06687012563211793,0.4864942002203283,0.7181063761815458,0.03413642876413287,0.046187809469637166,1.4827831753488775e-05,0.19528273424588305,0.03298663884479746,0.11363764372041447,3.2976926522820804e-08,0.997036505624208,0.5946547839738721,0.2063298408905465,0.1122697804933866,0.90783251850008,-0.00259358786018,0.009435525885979148,-0.0813446044921875,0.0462799072265625,0.05825055741361496,1.5911269613990828,-3.24249267578125,3.45001220703125,35.77542986425342,0.037081551492185484,35.71,35.84,0.6209057083255366,0.005715503569135552,0.5914000272750854,0.6460000276565552,-0.10450306511038696,0.006401265126041071,-0.14840000867843628,-0.06319999694824219,-0.7147476685976566,0.0072953026848171796,-0.7533999681472778,-0.6754000186920166,28.799658802053376,0.037923903410756514,28.679107666015625,28.988800048828125,0.08821034775233247,0.0005353597118303113,2,0
3,0.033268496418121685,0.007669752274929799,0.0,0.07499783416932004,0.03295965407706733,0.008903822401378455,-0.03096239394388635,0.07499779866408028,2.267799541751872e-05,6.126303484397399e-06,-2.1303774194142445e-05,5.160247527025615e-05,2.267799541751872e-05,6.126303484397399e-06,-2.1303774194142445e-05,5.160247527025615e-05,-0.17923946847610833,84.22484335471755,-670.2,361.86,0.001121522179434852,0.14742581728512807,-0.4049835205078125,0.7828216552734375,0.5047598616495667,0.01805323744150973,0.4701519730405613,0.5689634790783594,0.223354574277362,0.18778396091522254,0.0013878393348570868,0.6698364603335911,0.16700313466660455,0.4514013853468902,3.2841318997611786e-08,3.622407094081217,0.11999755777187987,0.1814455467009712,-0.20270020156079727,0.31263141090766,-0.002509668859253624,0.010921704442952207,-0.0846405029296875,0.0713653564453125,0.0625670701958699,1.879271320854473,-6.646728515625,5.21697998046875,35.83072398190053,0.025266378398122503,35.77,35.89,0.6687222154455289,0.07315014961775151,0.5770000219345093,0.9349999427795408,-0.07532115646416196,0.053832599119041896,-0.2896000146865845,0.09099996089935304,-0.6289231977280584,0.19449905580797927,-0.7878000140190125,0.16600000858306885,28.76886511652685,0.058638828254745465,28.58465576171875,29.02328491210937,0.11761379700310998,-0.0002561730797024862,2,0
4,0.03702101565475415,0.0012844260056323526,0.027522140979566984,0.043347372042818,0.037020998128381916,0.0012844253975634028,0.0275221279501212,0.04334735152144089,2.5472416183262765e-05,8.837530033531475e-07,1.8936688172571066e-05,2.9825283871799426e-05,2.5472416183262765e-05,8.837530033531475e-07,1.8936688172571066e-05,2.9825283871799426e-05,0.051860333616058484,21.030838832701626,-120.43,139.13,0.0010512695848947963,0.14406446384190558,-0.27978515625,0.77801513671875,0.4562857317383377,0.03683899463944928,0.3955345289647858,0.5179903104042501,0.004533319621371927,0.009405826463246295,6.819167828716883e-07,0.0634146893150826,0.001633651879818525,0.009980247930587001,8.373381165764366e-08,0.11808383076499945,0.19159264592704034,0.10951814391376348,0.008597810783057658,0.3442429172221761,-0.002470069532618257,0.010011263507229824,-0.0664215087890625,0.0712738037109375,0.0579471487550772,1.4149755753488782,-2.777099609375,3.02886962890625,35.798868778280614,0.02090889465952162,35.77,35.84,0.6411373766603126,0.004339873999999497,0.6202000379562378,0.6649999618530273,-0.06171518050826776,0.005641592746869552,-0.12559998035430908,-0.02640002965927124,-0.6952192115261049,0.00626695988853856,-0.7202000021934509,-0.6570000052452087,28.598513795996446,0.06812760222111518,28.44744873046875,28.882598876953125,0.15154085383093016,0.0002602643779114445,2,0
5,0.032592254846673774,0.012684394723806487,0.0,0.07018145949789581,0.03243190122810098,0.013088910195740423,-0.008944691583789391,0.07018142627280906,2.2314873381636988e-05,9.005866528370372e-06,-6.1544236560855945e-06,4.8288554840056206e-05,2.2314873381636988e-05,9.005866528370372e-06,-6.1544236560855945e-06,4.8288554840056206e-05,-0.2701781674208118,84.07123918523716,-596.97,368.75,0.0017731659539035234,0.14272113280021842,-0.2749786376953125,0.7787933349609375,0.3647523176179545,0.016189381096408318,0.33800492133647986,0.39550396767918455,0.034104673671894334,0.029882517887809087,6.996313584973643e-05,0.12320395872617824,0.026361025482252828,0.08050112580183287,3.4712853480556305e-08,0.5722274379884067,-0.11600037898262534,0.052428087850277375,-0.16984153391509102,0.006874694171344621,-0.0024567715370086515,0.01014418956485101,-0.0803375244140625,0.0489349365234375,0.04840509149167555,1.471546205346255,-3.240966796875,3.20587158203125,35.88076923076926,0.02250884499542674,35.83,35.91,0.6380680999907471,0.0065797378791379035,0.6058000326156616,0.6862000226974487,-0.06577165283496735,0.007500687115232002,-0.11959999799728395,-0.022599995136260983,-0.6988177222430252,0.007835593816220895,-0.7305999994277954,-0.6532000303268433,28.573323525109164,0.04365348117338421,28.41741943359375,28.786529541015625,0.07918552036199096,0.00016692051986168474,2,0
6,0.03528481607383185,0.01008371417559828,0.0,0.06123676367953655,0.03517822696891961,0.010449431044905543,-0.006880531987530299,0.061236734689019676,2.420449159242617e-05,7.189764455596502e-06,-4.7341720431427655e-06,4.2134131183970615e-05,2.420449159242617e-05,7.189764455596502e-06,-4.7341720431427655e-06,4.2134131183970615e-05,0.35775515973989586,82.20378728079848,-428.17,421.48,0.0005217149750472175,0.1473350571736452,-0.298004150390625,0.8064422607421875,0.2970507821836731,0.026499342466928415,0.254280746425988,0.3568084859483367,0.03214167647299285,0.02890210413465876,0.0009432021972993783,0.10383133735330914,0.024416935847370855,0.1006057726396636,4.2224260754508685e-08,0.8351373018287732,-0.319819917051,0.07838548132040409,-0.41633987683323137,-0.1703482106389121,-0.0024132620596784607,0.009751947103990296,-0.065093994140625,0.0445404052734375,0.0386697333103843,1.4793305608975458,-3.08990478515625,3.22418212890625,35.81959276018101,0.03178429479395135,35.77,35.89,0.6293998458937446,0.006307283919819748,0.5978000164031982,0.6554000377655029,-0.06300531023722895,0.005645853803270183,-0.09680002927780153,-0.031400024890899665,-0.7075637270448102,0.007647488593822757,-0.7397999763488771,-0.670199990272522,28.44531648312615,0.04249388360718395,28.278961181640625,28.69198608398437,0.06333050607859768,-0.000443572325925264,2,0
7,0.03772697102433732,0.007104925784853659,0.0,0.05435622843464479,0.0377067163049664,0.0072115506743670454,-0.006880531987530299,0.054356202701489366,2.594422676810581e-05,4.961930509467893e-06,-4.7341720431427655e-06,3.739995914082785e-05,2.594422676810581e-05,4.961930509467893e-06,-4.7341720431427655e-06,3.739995914082785e-05,-0.10934973141080072,80.38091992374488,-727.64,595.6,0.0008489028730284967,0.14444571259696962,-0.269439697265625,0.793212890625,0.22660551689801764,0.01768988045610877,0.1980245217839082,0.2617580893359861,0.01007472699286538,0.015715549648620576,1.4904675891705082e-05,0.0635584278521064,0.007727708506293595,0.056282006477141926,5.048273732377595e-08,0.6177148725378334,-0.5116929199960332,0.04851435039551335,-0.588027101775721,-0.4170137280529369,-0.0024172795027195514,0.009815479757682913,-0.061294555664062514,0.0507659912109375,0.04165380401185325,1.4226620174355955,-2.72369384765625,2.70843505859375,35.76411764705889,0.015449954410814613,35.75,35.79,0.6276151645844262,0.004474925924892685,0.5981999635696411,0.6585999727249146,-0.0631617108498028,0.0041297080998344326,-0.09460002183914183,-0.031400024890899665,-0.7099693627376465,0.006193573090677525,-0.7432000041007996,-0.6754000186920166,28.451477430239297,0.05702981162130676,28.266143798828125,28.686279296875,0.07011591744416171,0.00014339555516026,2,0
8,0.03689157079947632,0.007797145217023556,0.0,0.05504428195913397,0.03688066272411563,0.007848492876081501,-0.00481637239127121,0.0550442559002424,2.5375857959460143e-05,5.4001806287782505e-06,-3.313920430199936e-06,3.787337634514213e-05,2.5375857959460143e-05,5.4001806287782505e-06,-3.313920430199936e-06,3.787337634514213e-05,-0.5040938648572224,54.42425738276529,-409.52,347.37,0.0016921422755431024,0.1411120073843673,-0.26788330078125,0.77435302734375,0.1803100779099021,0.009349296205610277,0.16453634055355246,0.19774625937860227,0.007305087509962544,0.013052243824458343,3.4805112749332893e-06,0.051969077400547764,0.008078716375143569,0.04773215026483391,4.878782289274852e-08,0.4129655662508148,-0.6494600762704646,0.032033063964398964,-0.6939015622907352,-0.5886179925834639,-0.0024252102547847624,0.0099732122398282,-0.0628509521484375,0.0419769287109375,0.06354727107531134,1.4316740458277155,-2.81219482421875,2.84423828125,35.86131221719456,0.042036369569422936,35.77,35.93,0.6262366772067792,0.004555548810705967,0.5997999906539917,0.6469999551773071,-0.06404325833193407,0.004235098561354385,-0.09179997444152832,-0.03479999303817749,-0.7116274433377092,0.006403980181297393,-0.7445999979972839,-0.6818000078201294,28.500903815422426,0.032868315542589496,28.34320068359375,28.7020263671875,0.06106870229007633,0.0006092921387038787,2,0
9,0.03614927363277656,0.0059810863382543464,0.0,0.0571084425326015,0.0361430297933209,0.006018596527191686,-0.0034402659937651497,0.05710841549650149,2.486832726192049e-05,4.141114592538159e-06,-2.3670860215713828e-06,3.9293627958084963e-05,2.486832726192049e-05,4.141114592538159e-06,-2.3670860215713828e-06,3.9293627958084963e-05,0.5088040712468184,58.07213591817753,-351.18,402.66,0.0009014290178614704,0.14397458312710212,-0.2739715576171875,0.78863525390625,0.1555021421665568,0.009280025899340478,0.14213966030426178,0.18141780674696656,0.007872347979405859,0.014349041759053225,3.340663064775416e-06,0.054985584373685135,0.00418967876991109,0.028329928921542107,3.626094247088929e-08,0.3759758972194029,-0.7255101162428922,0.020068288675472955,-0.7552844847638849,-0.6942090698160025,-0.002368763700881057,0.010691134338428663,-0.0688934326171875,0.0582733154296875,0.0523581892859047,1.4058823075183513,-2.83050537109375,3.05023193359375,35.90095022624439,0.014660633484162112,35.87,35.95,0.6195736115153333,0.006278614880139373,0.5801999568939209,0.6754000186920166,-0.06681979113324772,0.006913886886012743,-0.12220001220703125,-0.022599995136260983,-0.7185324787255367,0.007540444318481908,-0.7734000086784363,-0.6812000274658203,28.444932747695823,0.0487170558937336,28.283233642578125,28.6705322265625,0.14475544246536612,-1.3118836648243609e-05,2,0
10,0.03638048977563279,0.0029820253046125085,0.02339381983263193,0.04747569318975305,0.03638047255249581,0.002982023892871441,0.023393808757603017,0.04747567071395907,2.503170051189193e-05,2.0517910782481582e-06,1.6096184946685408e-05,3.2665787097685084e-05,2.503170051189193e-05,2.0517910782481582e-06,1.6096184946685408e-05,3.2665787097685084e-05,-0.06492507774950533,30.43115082191898,-314.16,225.36,0.0014021870219933065,0.1432531082821628,-0.2838592529296875,0.7650604248046875,0.13975828625419884,0.007350018499229134,0.12543020594307994,0.149701530857227,0.006395849095354836,0.008064477671943009,2.8136414035212113e-07,0.03542963984004155,0.004333231657255531,0.018779434156579487,4.23750475819773e-08,0.1845907131918013,-0.7719458817240927,0.024761317465069592,-0.8093188566206965,-0.7449105675593443,-0.0024818449599236765,0.009705217365245442,-0.0669708251953125,0.04046630859375,0.05294591536653558,1.402296036889707,-2.984619140625,2.47802734375,35.91343891402717,0.017200760971718482,35.89,35.95,0.6195168027727671,0.005720836244735988,0.6030000448226929,0.6461999416351318,-0.06420551728110145,0.0061242006961167855,-0.10100001096725464,-0.04339998960494995,-0.7184789424249618,0.007067266784149756,-0.7497999668121338,-0.6800000071525574,28.37984280058177,0.036420111560645424,28.21337890625,28.56463623046875,0.14701724625388746,-0.00018799959976430845,2,0
11,0.03606988284149034,0.0035778341136120657,0.018577445161207715,0.0488518002387314,0.03606986576539877,0.0035778324198050384,0.018577436366331808,0.04885177711146513,2.481798651847481e-05,2.4617390410491852e-06,1.2782264516485464e-05,3.3612621506313634e-05,2.481798651847481e-05,2.4617390410491852e-06,1.2782264516485464e-05,3.3612621506313634e-05,0.01166006787330308,38.82512918252068,-186.68,214.5,0.0013011327405547206,0.14512728604730726,-0.2867889404296875,0.7893218994140625,0.11814788140982915,0.0051919816242266895,0.10888644287643393,0.12903780728226102,0.002982927150260899,0.003512932846307465,9.073210120858004e-06,0.015063069321967971,0.002288516276687053,0.011097204370325008,8.998088856654318e-08,0.10770695774440316,-0.8340708643513551,0.014768456638732497,-0.8574454437995359,-0.8062265652820696,-0.002507810086046554,0.009936285169741646,-0.0615692138671875,0.0482940673828125,0.0575259305932532,1.3924767823678246,-2.66265869140625,2.899169921875,35.889457013574656,0.01887501660170762,35.84,35.93,0.6252920051685396,0.004666912505948811,0.6044000387191772,0.649399995803833,-0.0707759278896352,0.005316776348454601,-0.10860002040863036,-0.026199996471405036,-0.7133634488003591,0.006470203188130903,-0.748199999332428,-0.6793999671936035,28.384763820057028,0.04848102758089756,28.247589111328125,28.626190185546875,0.13574660633484165,-0.00019925066983890287,2,0
12,0.0371078006864056,0.001896968102351648,0.015825231063251018,0.03990710442037213,0.037107783118948114,0.001896967204294932,0.015825223571319692,0.03990708552767574,2.553212887362558e-05,1.3052143528447377e-06,1.088859569922836e-05,2.745819785022804e-05,2.553212887362558e-05,1.3052143528447377e-06,1.088859569922836e-05,2.745819785022804e-05,0.0791716143624544,27.256729131945466,-182.35,204.13,0.0009483153590025916,0.14313716469556165,-0.266143798828125,0.8088226318359375,0.10273543506363207,0.0042982372379848244,0.09545578796453186,0.11320410852197375,0.0008310382567447794,0.0020299912181944487,6.554582948151643e-07,0.010646708461665346,0.000635980856446733,0.007830243880909976,1.0280812410418116e-07,0.11581546516876293,-0.8786939246064981,0.011815463339269021,-0.896103865852138,-0.8575922532433247,-0.002449408396978361,0.009970968819945109,-0.063079833984375,0.0513153076171875,0.04811484642845314,1.3686069429325336,-2.58331298828125,3.14788818359375,35.904479638009065,0.015927601809954305,35.87,35.93,0.6262768695475508,0.003895493777275762,0.6069999933242798,0.6519999504089355,-0.06891726693129813,0.003402242415189295,-0.08939999341964723,-0.02780002355575561,-0.7124347279316119,0.005887623073016325,-0.7418000102043152,-0.6765999794006348,28.442697441598874,0.04249449773486293,28.276123046875,28.68194580078125,0.14249363867684478,0.00016436345848110063,2,0
13,0.031131991042192424,0.004645757785017801,0.01651328458774019,0.044035425567307176,0.03113197630378188,0.0046457555856378105,0.016513276770072718,0.04403540472019392,2.1420455879321114e-05,3.196526991322853e-06,1.136201290354264e-05,3.0298701076113697e-05,2.1420455879321114e-05,3.196526991322853e-06,1.136201290354264e-05,3.0298701076113697e-05,0.015329375176703854,24.11411194672441,-230.28,181.44,0.001476163590981171,0.14236567160004285,-0.281158447265625,0.8030548095703125,0.106389523197925,0.009062109389085237,0.09240124170975246,0.11582715188840922,0.0036298502432282453,0.005966274017533643,2.845249599379671e-07,0.02513573836329121,0.002824364841784468,0.016031335468543056,5.4862800441535236e-08,0.1979425920386238,-0.8704460262749915,0.02871409163278222,-0.9163879134279879,-0.8432599145459059,-0.002439895517859855,0.010282211474083121,-0.0688018798828125,0.061431884765625,0.08290546927256343,1.5242296272585911,-3.204345703125,3.0303955078125,35.928733031674206,0.01820512195701101,35.89,35.97,0.6160892498288575,0.008372814725297068,0.5922000408172607,0.645799994468689,-0.06621216459113308,0.006022282164514599,-0.10100001096725464,-0.03339999914169312,-0.7224849544973239,0.009312914186445871,-0.7598000168800354,-0.6823999881744385,28.34653416888912,0.042222047460938085,28.20196533203125,28.53887939453125,0.14249363867684478,-1.898896016542691e-05,2,0
14,0.029221648751876494,0.0003804024135134866,0.028210194504056162,0.029586301553034506,0.029221634917855326,0.0003804022334245689,0.02821018114887423,0.029586287546380288,2.0106039378022975e-05,2.6173697352056087e-07,1.941010537688534e-05,2.0356939785513888e-05,2.0106039378022975e-05,2.6173697352056087e-07,1.941010537688534e-05,2.0356939785513888e-05,-0.12552162849872764,21.75550575001553,-60.03,36.42,0.0008518493923723308,0.1441268362360113,-0.2969512939453125,0.8060760498046875,0.11536803317408408,0.0009042247637364027,0.1117353430723888,0.11710083739739095,0.00030730686595324355,0.0006113896632669654,3.417732886016474e-07,0.0027059638052680858,0.00020420733272380964,0.0018366606110216766,7.525327152330158e-08,0.024536010361806013,-0.8399177132681439,0.0023391791751264496,-0.8466121288686139,-0.8371835242258803,-0.002435165703475395,0.00936090196734933,-0.0640411376953125,0.0499420166015625,0.02873467753140833,1.3871383488971103,-2.66265869140625,2.55889892578125,35.815248868778355,0.049298761937644514,35.73,35.91,0.6121934162875191,0.00501394361719847,0.5920000076293945,0.6330000162124634,-0.05545420372126182,0.003634185026882573,-0.07599997520446777,-0.037199974060058594,-0.7262488775068522,0.006695513551377014,-0.7608000040054321,-0.6949999928474426,28.25859775805521,0.0614045435466795,28.04525756835937,28.511749267578125,0.14701724625388746,-0.0007475291004702715,2,0
15,0.03203124471580383,0.0016835690335997224,0.02476992688161029,0.03921905089588296,0.03203122955167161,0.0016835682365696927,0.024769915155109082,0.03921903232892271,2.203918995302081e-05,1.158384510490769e-06,1.7043019355313955e-05,2.698478064591377e-05,2.203918995302081e-05,1.158384510490769e-06,1.7043019355313955e-05,2.698478064591377e-05,0.008295165394401985,24.177170833003235,-171.28,101.42,0.0015406146720658444,0.14735676217139254,-0.287017822265625,0.8181610107421875,0.10458241111775046,0.006452305853739081,0.0964519022877797,0.1165564764953753,0.006054419917588508,0.008448541583584799,2.1507682790344306e-07,0.03506807693242072,0.0046789743071864644,0.01521801481302086,3.542750343088485e-08,0.09911244813137626,-0.8784201100198582,0.015593292747939691,-0.89568975709501,-0.8390040090947103,-0.002529373553521229,0.010472203947602746,-0.0714569091796875,0.04925537109375,0.06774933898697008,1.4270517741492004,-2.69012451171875,2.74200439453125,35.67738738738732,0.02830693136750336,35.65,35.75,0.6169105225883899,0.005797190080819476,0.5961999893188477,0.6426000595092773,-0.06208317994116135,0.004380858212441753,-0.08300000429153442,-0.04559999704360962,-0.7219120794016215,0.007127741098772186,-0.7545999884605408,-0.6898000240325928,28.229587945719942,0.05878984014287996,28.04525756835937,28.55746459960937,0.14249363867684478,-0.0003096950815230974,2,0
16,0.03823717360952171,0.004265764494848669,0.02064160573467524,0.060548710155047376,0.038237155507398514,0.004265762475363812,0.020641595962590898,0.06054868149026664,2.6309197158082932e-05,2.935071516294682e-06,1.4202516129428297e-05,4.166071397965634e-05,2.6309197158082932e-05,2.935071516294682e-06,1.4202516129428297e-05,4.166071397965634e-05,0.05473282442748023,50.024629974278405,-261.35,444.13,0.0011714047402460884,0.14871634828099456,-0.2790985107421875,0.9906463623046876,0.10180489142741317,0.007657450458871101,0.09369306720939416,0.1337623345155346,0.015076105833306756,0.022353483900168857,1.1760697506150405e-05,0.09286385673149876,0.011606812352319928,0.07817134578364557,4.253358265593477e-08,0.9673040262005476,-0.8956853936214221,0.003113361003236207,-0.8993460078060808,-0.8894393786864535,-0.002523819252150639,0.011434260356215043,-0.0816192626953125,0.0568084716796875,0.02177391016745861,2.542171820551455,-10.64453125,10.43243408203125,35.6909502262444,0.020213840123243426,35.65,35.73,0.6254611934227332,0.007964064395896708,0.5793999433517456,0.6828000545501709,-0.08057726830746367,0.008693146307574631,-0.12980002164840698,-0.04180002212524414,-0.7137697502013853,0.008808155728126585,-0.7613999843597412,-0.6643999814987183,28.31662322269109,0.03628804592373902,28.18060302734375,28.5074462890625,0.11987560079163133,-9.843574549457436e-05,2,0
17,0.03978069549133949,0.0004992304186070285,0.03853099737139378,0.04128321146935048,0.039780676658486884,0.0004992301822629309,0.03853097913016968,0.0412831919251818,2.737122182343244e-05,3.4349692382006287e-07,2.651136344159949e-05,2.8405032258856597e-05,2.737122182343244e-05,3.4349692382006287e-07,2.651136344159949e-05,2.8405032258856597e-05,-0.003867684478371512,15.113486824519773,-33.37,26.58,0.0009603392879394178,0.14787550935089672,-0.276947021484375,0.8341827392578125,0.0963536055779372,0.002439155517632428,0.09167224593724516,0.10124243974956333,0.00019589682827527945,0.00035648399594383564,2.3934373836971504e-07,0.0016290531373314744,0.00013061669755008536,0.0012065713847686636,9.154845110566694e-08,0.014855346827090618,-0.8975916609895966,0.007024169206086269,-0.9107679709494568,-0.887313614886625,-0.0025018954915549713,0.00996195718460832,-0.06573486328125,0.0452728271484375,0.06422938833117374,1.3827687247270977,-2.39410400390625,2.60772705078125,35.628054298642475,0.020520748623175624,35.59,35.66,0.6307945676851316,0.004267642963798207,0.6131999492645264,0.6507999897003174,-0.08821682792829882,0.002875304792401678,-0.1021999716758728,-0.07859998941421509,-0.7088150818075393,0.00605153572054461,-0.7430000305175781,-0.6801999807357788,28.36931528693555,0.05988051608885415,28.169189453125,28.6390380859375,0.14475544246536612,-0.0002289681701446289,2,0
18,0.031019616672204257,0.010094533628677564,0.0,0.060548710155047376,0.03096667481785987,0.0102557433107029,-0.011696904378801509,0.06054868149026664,2.1306719663174508e-05,7.05649699051928e-06,-8.048092473342704e-06,4.166071397965634e-05,2.1306719663174508e-05,7.05649699051928e-06,-8.048092473342704e-06,4.166071397965634e-05,0.03166289592760139,61.12098137189656,-404.55,327.42,0.0008881384386208318,0.15165581084509425,-0.3783416748046875,0.8137664794921875,0.09667049579917306,0.009896006577284008,0.07436339901748729,0.10978813308243143,0.01434653963063104,0.0156093988428901,6.262961985049615e-05,0.05411732824197172,0.01103077482118832,0.04556132157835897,6.130659662220704e-08,0.41011978635571417,-0.9105437712622548,0.03344898212054264,-0.9708473849845576,-0.8585015346035824,-0.002419671202500969,0.010605242653351535,-0.0791473388671875,0.1978912353515625,0.04489898188594578,1.7139848044313162,-4.22515869140625,4.1534423828125,35.674117647058765,0.04310110922218874,35.61,35.73,0.6315062593732738,0.007637142309519553,0.5351999998092651,0.6729999780654907,-0.09632238922646699,0.008524340643637655,-0.16060000658035278,-0.028599977493286133,-0.7078071192005153,0.008976642828224527,-0.7572000026702881,-0.6592000126838684,29.967991413551808,1.5842900512384854,28.420318603515625,32.842803955078125,0.08823529411764706,0.0005855781738134557,2,0
19,0.031912763074185835,0.0042881301494695385,0.0,0.057796496057090675,0.0318987378331387,0.004391133130723168,-0.006880531987530299,0.057796468695254524,2.1948028602275934e-05,3.0213331967444694e-06,-4.7341720431427655e-06,3.976704516239923e-05,2.1948028602275934e-05,3.0213331967444694e-06,-4.7341720431427655e-06,3.976704516239923e-05,-0.907975685609273,48.77923805847842,-306.06,257.19,0.0017098959420955287,0.14928333216347575,-0.2992401123046875,0.80438232421875,0.12275805131882855,0.0035533563188082195,0.10255769399184783,0.13002344579608147,0.006571792892262246,0.008305761608059868,1.9159547535207824e-05,0.02789203138290076,0.005352654686290549,0.01853017635686504,3.261570918899892e-08,0.15510524504987566,-0.8239393217879997,0.01122474133303438,-0.8633473747708964,-0.8099229831271116,-0.002369247687391752,0.009141766409056274,-0.061752319335937486,0.0403289794921875,0.07320325557774612,1.6097531069608912,-3.9764404296875,3.02581787109375,35.63511312217191,0.04028867394967242,35.55,35.71,0.6293424011700501,0.005455013898864925,0.5867999792098999,0.6698000431060791,-0.08317232981405859,0.011574468868989309,-0.13020002841949466,-0.03979998826980592,-0.7100214153888763,0.006740161779072804,-0.751800000667572,-0.6642000079154968,33.652147712190796,0.4573729702662665,32.577911376953125,34.370391845703125,0.14701724625388746,-0.000600175658999173,2,0
20,0.012393914363352248,0.004328208454761387,0.0,0.044035425567307176,0.012331641238058437,0.004502550707114583,-0.022705755558849988,0.04403540472019392,8.484825199720813e-06,3.097994416577889e-06,-1.5622767742371126e-05,3.0298701076113697e-05,8.484825199720813e-06,3.097994416577889e-06,-1.5622767742371126e-05,3.0298701076113697e-05,0.9364235227594002,138.35620879813595,-762.88,450.12,0.00144534465532221,0.1274984356742323,-0.3471221923828125,0.8715362548828125,0.7330279475757434,0.029501289264163226,0.671121921448427,0.806885757687815,0.13511772732251215,0.20802847529793864,0.009031265905546686,0.9520800357804718,0.07256982930747849,0.2275693720992372,7.031722493167081e-08,1.8398512157106008,0.9016011354730398,0.16369232829002414,0.23176209760684816,1.037838218392396,-0.002447164782249081,0.01090326600111208,-0.0722808837890625,0.04852294921875,0.3679698557139257,4.717099137245722,-7.69805908203125,13.61846923828125,34.07217194570134,0.015538226991013046,34.03,34.11,0.879268359434098,0.012301339925039474,0.8157999515533447,0.9595999717712402,-0.10981220149313477,0.014052554262033314,-0.15299999713897705,-0.03659999370574951,-0.275027210135739,0.021182693146306383,-0.3626000285148621,-0.18699997663497925,31.334510949168052,0.05218025936549657,31.17083740234375,31.531494140625,0.1583262651964942,-8.440526087585768e-05,2,1
21,0.011932613950143207,0.0031762031585305787,0.0,0.036466836797926255,0.011900714370970329,0.003293690222082275,-0.006880531987530299,0.03646681953391059,8.18832459039226e-06,2.2662340930052875e-06,-4.7341720431427655e-06,2.5091111828656657e-05,8.18832459039226e-06,2.2662340930052875e-06,-4.7341720431427655e-06,2.5091111828656657e-05,-0.07366412213740624,86.13000124312056,-731.27,306.62,0.0011285216420528351,0.13012348110108465,-0.43597412109375,0.9201507568359376,0.6224145598391557,0.02461627176086705,0.5869399238499572,0.6792659672855463,0.052489506916771435,0.049423348783478815,0.002591057980598489,0.2555658534250808,0.040316415307892636,0.13129508865351255,6.410283570623676e-08,1.1418162957110318,0.6483764606133908,0.06672713568088473,0.5778537435530255,0.8052509104417469,-0.0023086203893748873,0.010864230606302648,-0.079833984375,0.065643310546875,-0.19141666497948528,5.3105527958932415,-7.98492431640625,19.27032470703125,33.98438914027149,0.03576206779432607,33.93,34.05,0.8810241605426641,0.01479875209171518,0.8121999502182007,0.9869999885559082,-0.13242096512070636,0.012576219864539936,-0.20080000162124634,-0.06480002403259277,-0.2623712076555054,0.03482947242477265,-0.366599977016449,-0.1531999707221985,31.28444181727643,0.07263687577935078,31.05926513671875,31.506378173828125,0.1289228159457167,-0.0005199061669649792,2,1
22,0.01238574178189615,0.004125920490529514,0.0006880535244891746,0.03371462269996956,0.012322690319748858,0.004310563918663589,-0.00963274478254242,0.03371460673889847,8.478666491746205e-06,2.9658972926658964e-06,-6.627840860399872e-06,2.319744301139956e-05,8.478666491746205e-06,2.9658972926658964e-06,-6.627840860399872e-06,2.319744301139956e-05,0.4113910093299422,62.25043283747043,-464.57,299.26,0.0013585714356579516,0.1321254875611557,-0.3521575927734375,0.9506378173828124,0.6029439166626956,0.01504439474942465,0.5791634104877523,0.6479586877395179,0.03625866846165733,0.031517180919523075,0.004607245914640276,0.1549700350780366,0.02667171056939518,0.0973391411954335,7.30744780241821e-08,0.8087777898836715,0.6053183766782091,0.03161504687255643,0.5653632175851345,0.6596703521058832,-0.0024449235342020037,0.010608692440412995,-0.0707244873046875,0.0427093505859375,0.14108187064379007,3.1436621917031835,-5.29937744140625,13.42315673828125,33.877963800905015,0.028664363737033807,33.81,33.95,0.8798028548012081,0.010442151095673162,0.8042000532150269,0.930400013923645,-0.13716923817491447,0.012356111923139193,-0.1818000078201294,-0.07499998807907103,-0.2678102108860519,0.016046820224722546,-0.35199999809265137,-0.1962000131607056,31.27583906552178,0.037760077353570516,31.109130859375,31.46807861328125,0.14927905004240882,-0.00033281821517113815,2,1
23,0.015422278292549644,0.00754202767420831,0.0,0.0571084425326015,0.015176454359606847,0.008025198015188912,-0.031650447142639385,0.05710841549650149,1.044220796785682e-05,5.521763164977084e-06,-2.177719139845672e-05,3.9293627958084963e-05,1.044220796785682e-05,5.521763164977084e-06,-2.177719139845672e-05,3.9293627958084963e-05,-1.1381283573649994,94.9043985582762,-545.31,358.01,0.0007779379071450727,0.14153645580202753,-0.4566192626953125,0.8899383544921875,0.6219970997395469,0.050797779736747525,0.5527239792862826,0.7212731024260295,0.1424530484552324,0.10406242982700546,0.009297562072811535,0.4332001624034813,0.10929061402866304,0.2699274536207225,4.8819640774411255e-08,2.373186590188884,0.5569836044768999,0.1011932715072612,0.43702849423824736,0.7522313149782757,-0.0024294892162093824,0.011474725803578277,-0.1354522705078125,0.056488037109375,0.3454390016882585,3.2539810325135403,-8.36639404296875,14.32342529296875,33.77488687782806,0.029622219551496468,33.71,33.84,0.8860201227259407,0.018623391754175427,0.7782000303268433,0.9961999654769896,-0.13041338043657386,0.021239392091418896,-0.25300002098083496,-0.021000027656555176,-0.2399956727996137,0.046800117121863404,-0.4025999903678894,-0.05779999494552612,31.374849710157793,0.0401596388176633,31.209014892578125,31.57574462890625,0.07690132880972575,-0.00041926912515148683,2,1
24,0.013020868112194002,0.006334158879683386,0.0006880535244891746,0.08738279761012517,0.0128091532713559,0.006752034438721806,-0.028898234347627262,0.0873827562416348,8.813378881674319e-06,4.6457588936531364e-06,-1.9883522581199616e-05,6.012398494791312e-05,8.813378881674319e-06,4.6457588936531364e-06,-1.9883522581199616e-05,6.012398494791312e-05,0.6566497031382541,98.77452694637444,-649.86,575.34,0.0007997149334441,0.13022405173614934,-0.3838348388671875,0.9245452880859376,0.7303455511573497,0.031941635074838465,0.645653373902191,0.8220393207822454,0.09511807201676206,0.05261677410363285,0.017345609015637985,0.29097502266340103,0.07393629114088468,0.1882360477219277,7.285869907391884e-08,1.3158462744343424,0.9334533390175288,0.07499840719501394,0.7536366978248341,1.0211865697760014,-0.0024628286684154786,0.010482013219221998,-0.0726470947265625,0.0575408935546875,-0.18016115830955629,3.619296339149689,-7.15789794921875,13.67340087890625,33.630271493212675,0.041378055609290254,33.57,33.73,0.8913721708998218,0.020270161369419056,0.7417999505996704,1.0631999969482422,-0.12988561744059318,0.019507643417655613,-0.23659998178482056,-0.013599991798400879,-0.21879177958947305,0.03589822594825805,-0.35920000076293945,-0.010999977588653564,31.308630166139068,0.11244773890669177,31.076873779296875,31.58016967773437,0.09499575911789652,-0.0006118936707171815,2,1
25,0.011065675291473431,0.0036035769451426406,0.0027522140979566985,0.0488518002387314,0.011065670052796305,0.003603575239148494,0.00275221279501212,0.04885177711146513,7.613769676172038e-06,2.4794514702434285e-06,1.8936688172571063e-06,3.3612621506313634e-05,7.613769676172038e-06,2.4794514702434285e-06,1.8936688172571063e-06,3.3612621506313634e-05,-0.08852941176470504,59.106709042962294,-579.93,332.32,0.0015949593906764974,0.13300571421192273,-0.2638092041015625,0.9462432861328124,0.9112178262426004,0.06969156871525982,0.7301879579571247,1.052853806652702,0.24857082140454875,0.12718975662925078,0.012282316942536021,0.5449273619150417,0.19345301964690226,0.3936274826541314,2.991622771730817e-08,2.056870374659699,1.3296179720623438,0.1535854086110962,0.9942044002611221,1.5234312980516311,-0.0024389449641333853,0.009632744204184808,-0.0558013916015625,0.0417022705078125,0.051659826500803765,2.8363678595878383,-7.09686279296875,10.90850830078125,33.51045248868782,0.04484032763589287,33.43,33.59,0.8774387756274685,0.011062602377293531,0.7949999570846558,0.937000036239624,-0.12948282352479312,0.009547687435927269,-0.19019997119903564,-0.07300001382827759,-0.2772592631593699,0.020087830964635973,-0.3984000086784363,-0.14920002222061154,31.062928638455787,0.025805555960118253,30.92730712890625,31.2354736328125,0.12669683257918554,-0.0006534959476135943,2,1
26,0.010362031625729769,0.0005161920422230105,0.0041283211469350465,0.012384963440805143,0.010362026720169332,0.0005161917978489838,0.004128319192518179,0.012384957577554541,7.1296256303769046e-06,3.55167417680076e-07,2.84050322588566e-06,8.521509677656977e-06,7.1296256303769046e-06,3.55167417680076e-07,2.84050322588566e-06,8.521509677656977e-06,-0.034489680520214866,42.37045036788828,-342.26,146.74,0.001335104598265352,0.1276993885458381,-0.2292022705078125,1.0103759765625,1.0123455520478115,0.06692946042821124,0.8971086730833259,1.1573411297036005,0.17984003779846167,0.14650620669634387,0.013250772767219029,0.6632264018543298,0.13551460569583088,0.3309788013830387,5.574794048612831e-08,2.569062002923048,1.7054245398209025,0.1315784063452647,1.52217621367091,1.882960213287412,-0.0024870989944162964,0.009394893418841395,-0.062118530273437486,0.0391387939453125,0.04629045000688673,2.6913802857054603,-6.44073486328125,11.47308349609375,33.38076923076924,0.03337495950608292,33.33,33.45,0.8676637667415678,0.007903656823834383,0.7932000160217285,0.9378000497817992,-0.12786641055333825,0.006519180228411982,-0.15780001878738406,-0.0965999960899353,-0.3103207886256004,0.013447030522407128,-0.4261999726295471,-0.2462000250816345,31.077013915283533,0.01924560750227094,30.97128295898437,31.24871826171875,0.08821034775233247,-0.0004804940687293483,2,1
27,0.011025979895829978,0.001032975636304617,0.004816374671424223,0.018577445161207715,0.011025974675944955,0.0010329751472764961,0.00481637239127121,0.018577436366331808,7.586457145153961e-06,7.107418543160151e-07,3.313920430199936e-06,1.2782264516485464e-05,7.586457145153961e-06,7.107418543160151e-07,3.313920430199936e-06,1.2782264516485464e-05,0.08776364150410018,47.660379318701274,-276.13,222.31,0.0006712017230910631,0.1304355344502791,-0.2929229736328125,1.0219573974609375,1.0110779082817172,0.044095846441216266,0.9472581302644107,1.1542469910427953,0.13856281141234486,0.12569285274583958,0.009176042193956287,0.5361904086574337,0.11544064258255532,0.3000093583124276,4.5870433673655946e-08,2.0665562773319284,1.7429071992856755,0.06775958255035641,1.6024423520029083,1.8136389215648088,-0.002492790865116634,0.009723717356803142,-0.061752319335937486,0.040374755859375,0.07855523126890318,2.2482627019514347,-4.31060791015625,5.61065673828125,33.25502262443437,0.060425523018228414,33.15,33.34,0.8769872457870664,0.013610887936445527,0.7527999877929688,0.9916000366210938,-0.1425242890768418,0.020254531804086352,-0.3109999895095825,0.013399958610534668,-0.2731696258436473,0.032934974134651226,-0.4441999793052673,-0.038600027561187744,31.221206201169352,0.07822001414828454,31.046051025390625,31.457733154296875,0.1085665818490246,-0.0009080680845386832,2,1
28,0.010680582126892506,0.0008633682487927193,0.0041283211469350465,0.015825231063251018,0.010680577070524588,0.0008633678400596322,0.004128319192518179,0.015825223571319692,7.348805217902786e-06,5.940430040535175e-07,2.84050322588566e-06,1.088859569922836e-05,7.348805217902786e-06,5.940430040535175e-07,2.84050322588566e-06,1.088859569922836e-05,-0.3544981622844217,22.582308318814643,-205.11,100.56,0.0014733602559106722,0.1317605137203857,-0.2872467041015625,1.0522613525390625,1.0356237005860107,0.02269352271195194,0.9996650752500426,1.1175190754008917,0.11686507301603953,0.0733910253598469,0.01890288667869758,0.3523559270034679,0.09243935646962848,0.20349855723035687,6.566509003214094e-08,1.2061070115803618,1.839090019699396,0.026873198127546585,1.7641211180785508,1.9118645268092485,-0.0026091570790582426,0.009496346527097613,-0.0640411376953125,0.044403076171875,0.2082872040675328,2.9724609995754685,-5.70220947265625,8.39996337890625,33.023348416289636,0.06372743756339852,32.91,33.16,0.8761014376575631,0.01528661750951219,0.7073999643325806,1.145400047302246,-0.14242568532284802,0.013025352628514343,-0.22060000896453852,-0.018999993801116943,-0.2781254056829194,0.02277106929399225,-0.3895999789237976,-0.1557999849319458,31.27208490562025,0.01992918023250442,31.1531982421875,31.4400634765625,0.11309018942606727,-0.0009737956796780352,2,1
29,0.010655100365944014,0.0007288081707376079,0.008256642293870095,0.013761070489783492,0.010655095321639852,0.0007288078257075213,0.008256638385036359,0.0137610639750606,7.331272419072744e-06,5.014585557543026e-07,5.6810064517713185e-06,9.468344086285533e-06,7.331272419072744e-06,5.014585557543026e-07,5.6810064517713185e-06,9.468344086285533e-06,0.1297907831495618,46.56863412618043,-170.08,172.07,0.0013198288479803909,0.13689889608405267,-0.3318328857421875,1.0104217529296875,1.09757459901466,0.03437422323373858,1.0571007477071614,1.1835703957821002,0.12678553978776136,0.10554694589338473,0.010983098013714544,0.4822124776617174,0.09239112497539356,0.2215067898099292,6.642098071552027e-08,1.6970670472391465,2.017397504201295,0.04329899738727688,1.9136380148988643,2.121052495959556,-0.002652017693770559,0.009539510724210505,-0.0648651123046875,0.0397796630859375,-0.015930137914334737,2.7502349930209093,-6.37359619140625,7.97576904296875,32.818597285067895,0.0537324172386864,32.73,32.91,0.8745807207224843,0.008441429296570544,0.8317999839782715,0.9223999977111816,-0.12918216886354966,0.007430334750018289,-0.17059999704360962,-0.09299999475479126,-0.28670986434775103,0.017969604547379888,-0.3483999967575073,-0.1908000111579895,31.095360290571517,0.037576015265955255,30.97714233398437,31.331085205078125,0.09273395532937516,-0.000816191757368213,2,1
30,0.01090928505080398,0.0005918618498585267,0.00894469581835927,0.013761070489783492,0.0109092798861643,0.0005918615696611313,0.008944691583789391,0.0137610639750606,7.50616492176762e-06,4.0723224622432754e-07,6.1544236560855945e-06,9.468344086285533e-06,7.50616492176762e-06,4.0723224622432754e-07,6.1544236560855945e-06,9.468344086285533e-06,-0.005903307888040112,37.006729113770774,-167.49,160.26,0.00163140019343935,0.1345604721432322,-0.2718658447265625,1.0433807373046875,1.1489457905436171,0.03791815908916096,1.09368413967135,1.258154742997118,0.1237033379111768,0.08359430909239833,0.028546968821233323,0.39021632877167056,0.08941077877665103,0.25149470262447504,6.190938850458848e-08,2.2816652223838307,2.1764925844845537,0.05277142460727978,2.1139953712525297,2.3172412961475017,-0.002752948406378445,0.009179389666322523,-0.0652313232421875,0.0353851318359375,-0.02918982996391838,2.2284760053318173,-4.89044189453125,4.93927001953125,32.64628959276018,0.04177928788543605,32.57,32.75,0.8713321728255704,0.006394345489561919,0.8273999691009521,0.90339994430542,-0.1274467848511741,0.005742665655162807,-0.15539997816085815,-0.10460001230239868,-0.2984753696076713,0.0109200481377438,-0.3877999782562256,-0.2477999925613404,31.112422753386213,0.020657165975874345,31.0108642578125,31.298736572265625,0.08821034775233247,-0.0006025103672162273,2,1
31,0.04302085795512154,0.0011620352924469328,0.034402676224458736,0.05366817491015562,0.04302083758832277,0.0011620347423198214,0.0344026599376515,0.05366814950273634,2.960062491567909e-05,7.995417215153232e-07,2.367086021571383e-05,3.692654193651357e-05,2.960062491567909e-05,7.995417215153232e-07,2.367086021571383e-05,3.692654193651357e-05,-0.055677127509189364,37.736925951469395,-126.1,252.96,0.0012237806007591155,0.11188693250631322,-0.2156524658203125,1.0000762939453125,0.20374932883068972,0.021403648643535843,0.1600177579460436,0.2360913645441297,0.0313252816710914,0.02116236714378473,0.003350905284903933,0.11226710577878801,0.02079578526634598,0.0659805574947684,5.554883619751649e-08,0.6015516644576524,-0.6024188892572333,0.06581992804466959,-0.7154826415873601,-0.536434967810943,-0.0024091747995123552,0.009284674021149887,-0.0668792724609375,0.044219970703125,0.075151666146796,1.8200230505707105,-3.20892333984375,4.02069091796875,34.386742081447956,0.02567234357488226,34.34,34.47,0.9100693057998728,0.002651680355849,0.8954000473022461,0.9265999794006348,-0.15233490379646045,0.004285266566623028,-0.16699999570846558,-0.13440001010894775,-0.08293468628794019,0.009462009897094259,-0.12139999866485594,-0.036800026893615716,31.76692200259257,0.08681548209367293,31.501953125,32.02410888671875,0.11987560079163133,-0.0002695809754633181,2,2
32,0.042604476490655865,0.0018407947661741746,0.02614603393058864,0.05504428195913397,0.042604456320978534,0.001840793894710871,0.02614602155261514,0.0550442559002424,2.9314132452782928e-05,1.266564127500879e-06,1.7989853763942512e-05,3.787337634514213e-05,2.9314132452782928e-05,1.266564127500879e-06,1.7989853763942512e-05,3.787337634514213e-05,-0.005278484591462677,52.53901628251175,-557.03,274.22,0.0013510027859699346,0.11455915533987045,-0.2739715576171875,0.9136505126953124,0.2003263932089677,0.011296650476472823,0.17567473704030032,0.24305055573697398,0.03743305696147183,0.04467354897258518,0.00013460593692667352,0.17221875550362606,0.029011146221520533,0.11603055436501405,4.2604367589405e-08,0.9792138509190372,-0.6189101385068367,0.03543501346536405,-0.6815516783982889,-0.5514500054121969,-0.00228542927045904,0.00955781393337924,-0.0661468505859375,0.0428009033203125,0.01741341654091485,2.3179873907017727,-8.93402099609375,8.18328857421875,34.31135746606345,0.03469275356814778,34.23,34.39,0.9116518507513114,0.006328613911828116,0.8594000339508057,1.0025999546051023,-0.14359428719642947,0.0043882558711586285,-0.1687999963760376,-0.10460001230239868,-0.06914958662274777,0.013903658346867184,-0.15820002555847168,0.03460001945495605,32.11699570722977,0.09066362301748228,31.87289428710937,32.406280517578125,0.13797003109980208,-0.000490310960899195,2,2
33,0.04240090927609965,0.001203662660435262,0.03577878327343708,0.05229206786117727,0.04240088920279407,0.0012036620906010756,0.035778766335157565,0.05229204310523028,2.9174067445955127e-05,8.281835516558178e-07,2.4617694624342375e-05,3.5979707527885024e-05,2.9174067445955127e-05,8.281835516558178e-07,2.4617694624342375e-05,3.5979707527885024e-05,-0.1124144755442463,35.19568926403938,-245.67,125.76,0.001156237857342506,0.11145890602683137,-0.21331787109375,1.0021820068359375,0.2034117557787731,0.01104701701321574,0.19000297498445373,0.24376684045319874,0.01744534321708691,0.022800719758585632,0.0006791889881972343,0.12265523184769705,0.013280918446425692,0.0550260314279023,5.0552283997751246e-08,0.6412224201124583,-0.5896602430338281,0.01959591064131401,-0.6195766326096941,-0.5588971806459428,-0.002413342526873393,0.009462530081818377,-0.0653228759765625,0.0413360595703125,0.05193502650785047,1.9627690206213488,-2.90374755859375,3.79791259765625,34.213529411764725,0.03196767731422908,34.16,34.27,0.9122298359531932,0.0027014915568841892,0.8977999687194824,0.9287999868392944,-0.1445837456737996,0.0033322854855280127,-0.16019999980926514,-0.1281999945640564,-0.059014336875596624,0.007985582499021591,-0.09020000696182252,-0.023800015449523933,32.001857169447824,0.1166080039667203,31.76043701171875,32.406280517578125,0.13797003109980208,-0.0004056277585689393,2,2
34,0.041641823877252,0.0006603580872273027,0.037842943846904606,0.04541153261628554,0.04164180416331152,0.0006603577746026638,0.03784292593141665,0.045411511117699976,2.8651776556413805e-05,4.543612791367864e-07,2.603794623728521e-05,3.124553548474225e-05,2.8651776556413805e-05,4.543612791367864e-07,2.603794623728521e-05,3.124553548474225e-05,0.0631608707944588,20.481854192489926,-108.56,116.77,0.001561562951626076,0.11260018490899384,-0.2130889892578125,1.0103302001953125,0.17588220282503306,0.010421228077599487,0.1554614389259764,0.2029261395522657,0.010927698454831351,0.019689009775331272,2.7690070412168383e-05,0.08060692181739502,0.008184304409753217,0.0420616027009113,6.008313357952487e-08,0.4723190733182433,-0.6667333010567618,0.024259153021327997,-0.7148496580614004,-0.620440521286047,-0.00240971440305484,0.009484084297866407,-0.0652313232421875,0.0446319580078125,0.08109239348087226,2.0287220506293666,-3.30352783203125,3.95050048828125,34.143574660633405,0.02007632699045766,34.11,34.18,0.9125176554147268,0.0025868148553901127,0.8969999551773071,0.9278000593185424,-0.14343573052866385,0.003074505621201073,-0.16019999980926514,-0.13099998235702515,-0.05582880832677839,0.008281848946612914,-0.0942000150680542,-0.01660001277923584,32.08088370181082,0.07301655426592861,31.908447265625,32.31396484375,0.13570822731128074,-0.00026323279264454046,2,2
35,0.032043135206937336,0.012351830569627064,0.0,0.06674119187544994,0.03192092054373278,0.012664278397214108,-0.015825223571319692,0.0667411602790439,2.1963291487256132e-05,8.713697261101981e-06,-1.088859569922836e-05,4.592146881848483e-05,2.1963291487256132e-05,8.713697261101981e-06,-1.088859569922836e-05,4.592146881848483e-05,-0.030771840542833176,58.97843581134431,-640.66,408.55,0.0011933296841828585,0.11125766911088274,-0.3691864013671875,0.9410247802734376,0.1861507993584143,0.06761795443410665,0.1303726742541037,0.36539061517962657,0.04692342342240873,0.0987782972073489,1.6453342951619747e-06,0.4389798979155341,0.03665068641140791,0.16566026792778135,6.275495317842328e-08,1.6869828530013808,-0.6714816360437371,0.14058244068344636,-0.8159899684432836,-0.40362470107916987,-0.002339034622376984,0.010930734618710572,-0.11151123046875,0.078460693359375,0.04160603647603822,2.141867099165577,-4.82025146484375,4.83245849609375,34.082850678733024,0.02424461244423196,34.03,34.13,0.9076485052502964,0.008340251428119005,0.8509999513626099,0.9529999494552612,-0.13964539396671632,0.02087658579662584,-0.18279999494552607,0.005800008773803711,-0.10061289979449818,0.06283913304049395,-0.2882000207901001,-0.0073999762535095215,32.30008140629443,0.07770851651600308,31.97369384765625,32.61376953125,0.15606446140797284,-0.0002537939008527287,2,2
36,0.018181269545862886,0.0014687119022638805,0.004816374671424223,0.031650462126502035,0.01818126093854333,0.0014687112069508652,0.00481637239127121,0.031650447142639385,1.2509674746127756e-05,1.0105514439869965e-06,3.313920430199936e-06,2.177719139845672e-05,1.2509674746127756e-05,1.0105514439869965e-06,3.313920430199936e-06,2.177719139845672e-05,-0.7732946832579194,58.93945601428054,-484.97,218.0,0.0008144738092677637,0.10933785191751956,-0.3705596923828125,0.9152069091796876,0.244523688673424,0.010813729426167536,0.223718663597064,0.2714838696919405,0.03241990538751058,0.030164312366004375,0.0006797910387568273,0.11261279565887428,0.02454544259779625,0.06884489285744005,3.2460319765448276e-08,0.5002904882599926,-0.4799861347225782,0.01711024231520475,-0.5049513580687185,-0.4445068517663605,-0.0023276439606103377,0.011021510114263704,-0.0779571533203125,0.090087890625,0.07859765366249434,2.284200723256334,-8.44879150390625,5.474853515625,34.06547511312215,0.03900777931011538,34.0,34.13,0.8995198841965197,0.006515373166864104,0.8270000219345093,1.0093998908996582,-0.14867711693830418,0.004205692447183909,-0.18000000715255735,-0.11239999532699584,-0.17569601658904554,0.011030920140875776,-0.29019999504089355,-0.03020000457763672,32.59325362885046,0.09600623554348299,32.360137939453125,32.839813232421875,0.12895927601809956,0.0005408963056021898,2,2
37,0.042838336969271834,0.00030452141358915384,0.04197126499383968,0.044035425567307176,0.042838316688879885,0.0003045212694235776,0.04197124512393483,0.04403540472019392,2.9475040826978247e-05,2.0952683351522835e-07,2.887844946317087e-05,3.0298701076113697e-05,2.9475040826978247e-05,2.0952683351522835e-07,2.887844946317087e-05,3.0298701076113697e-05,0.07364715860899043,12.52609024498309,-72.94,82.11,0.0011975482952112796,0.1335890378444789,-0.2954864501953125,0.7852020263671875,0.2926216144577266,0.016986573028300273,0.2619667571929041,0.3258780603365359,0.07273083023010507,0.15725692673356606,4.119760048835307e-05,0.9694581480224108,0.023797700127214456,0.06121346707283564,4.54419444295695e-08,0.4322212004026689,-0.3738730782114135,0.13875860755996608,-1.2129804224873473,-0.29156736995555044,-0.0023470813418701854,0.00808711852804643,-0.0579071044921875,0.0363006591796875,0.09709029739564484,1.093239221562009,-2.54364013671875,2.43988037109375,34.035158371040694,0.03243646466371496,33.99,34.09,0.6097934568092256,0.004966750245428599,0.5901999473571777,0.6308000087738037,-0.1060008837079425,0.004089770682834673,-0.12080001831054688,-0.08880001306533812,-0.7295464887273629,0.005956585755799185,-0.7562000155448914,-0.7026000022888184,31.3805934774655,0.04883616950691641,31.267852783203125,31.630340576171875,0.1334464235227594,-0.000465496347849288,2,3
38,0.04273749757905527,0.00022079376786200401,0.04197126499383968,0.043347372042818,0.04273747734640207,0.00022079366333450806,0.04197124512393483,0.04334735152144089,2.940565799482629e-05,1.5191778632170668e-07,2.887844946317087e-05,2.9825283871799426e-05,2.940565799482629e-05,1.5191778632170668e-07,2.887844946317087e-05,2.9825283871799426e-05,-0.07606728866270843,13.12226137181832,-32.58,20.86,0.001198380184005944,0.13364578971066954,-0.2937469482421875,0.79833984375,0.2421884494389119,0.013252056631815893,0.2205843429340684,0.2678747148614689,0.0016264039139024262,0.002899838287833091,2.4819555653805327e-06,0.014975230498476284,0.0012213790571758145,0.00935110404136562,1.1684564569201805e-07,0.1265908825238073,-0.4559461403757605,0.03842644556666332,-0.519506568745963,-0.3925490981141555,-0.0022330616933337265,0.007996633060975653,-0.0579071044921875,0.0351104736328125,0.005717825315173911,1.3458899561536506,-3.02581787109375,2.642822265625,34.00004524886868,0.02240106933364976,33.97,34.05,0.6013631367465232,0.004350445623595259,0.5851999521255493,0.6177999973297119,-0.11353042206655994,0.003179972876163568,-0.1266000270843506,-0.1021999716758728,-0.7373548554586484,0.005381388548940764,-0.7639999985694885,-0.7102000117301941,31.364761633385353,0.028509547064715382,31.22372436523437,31.5875244140625,0.13118461973423806,0.000254816725404954,2,3
39,0.0427200291234324,0.00019515729103070453,0.042659318518328826,0.043347372042818,0.04272000889904908,0.00019515719863995168,0.04265929832268786,0.04334735152144089,2.939363877374778e-05,1.342785347838983e-07,2.935186666748515e-05,2.9825283871799426e-05,2.939363877374778e-05,1.342785347838983e-07,2.935186666748515e-05,2.9825283871799426e-05,0.06993497314108009,14.463318514038198,-40.49,42.44,0.00109935820059549,0.13353179698405968,-0.3000640869140625,0.8614654541015625,0.20679870318435084,0.0071931474215390315,0.19390475837810506,0.22068520786803114,0.0003747508665414084,0.0006199103199628755,7.432844160146068e-07,0.0030654657965074705,0.00029400529068619236,0.00209001009116055,1.1925693059813836e-07,0.022529405541110683,-0.5622597589750665,0.021513438045399118,-0.599654467501188,-0.520051534802795,-0.002274827717526748,0.008013778998350964,-0.0595550537109375,0.0366668701171875,0.07310054157009761,1.2211432027988522,-3.78875732421875,2.92205810546875,34.13280542986426,0.03883254649580824,34.03,34.18,0.5925646320812804,0.004400056805864483,0.5753999948501587,0.6100000143051147,-0.12131416947712707,0.0026965071637264732,-0.13300001621246338,-0.10979998111724854,-0.7450280951860094,0.0053815487034077755,-0.7713999748229979,-0.7206000089645386,31.37328222892287,0.014547601837380285,31.241363525390625,31.58163452148437,0.13797003109980208,0.0005683013330072036,2,3
40,0.04268148869973015,0.00014737992820970438,0.04197126499383968,0.043347372042818,0.04268146849359236,0.00014737985843756056,0.04197124512393483,0.04334735152144089,2.9367120924492084e-05,1.0140518302973008e-07,2.887844946317087e-05,2.9825283871799426e-05,2.9367120924492084e-05,1.0140518302973008e-07,2.887844946317087e-05,2.9825283871799426e-05,0.07684195646027689,16.57025948027405,-39.93,25.88,0.0012180899133998795,0.1328075944714304,-0.2899017333984375,0.8159637451171875,0.18391246959671426,0.006275207263004369,0.17351291997388002,0.19507881640463848,0.0002760711252435289,0.0005294153566162371,3.9393680857875655e-07,0.002731959905989492,0.00020644248120388152,0.0020866181919626647,8.742370851723412e-08,0.02934096513035002,-0.6316999979913746,0.018606297163807944,-0.6608976973731343,-0.5999680762418924,-0.0023217684923585572,0.008065371801961195,-0.0567626953125,0.03643798828125,0.036354605333842806,1.2876495903665717,-3.07769775390625,2.91595458984375,34.283212669683344,0.06409901152430643,34.18,34.41,0.5856280013442767,0.0046484906737008745,0.5670000314712524,0.6019999980926514,-0.12583155818025474,0.002851298864202059,-0.1377999782562256,-0.11559998989105225,-0.750917837804925,0.005405714812701089,-0.7784000039100647,-0.7272000312805176,31.349020805591607,0.024609606415076056,31.234039306640625,31.68499755859375,0.13797003109980208,0.0009754077401136256,2,3
41,0.0426628210532403,0.0001338967263831119,0.04197126499383968,0.043347372042818,0.04266280085594006,0.0001338966629941408,0.04197124512393483,0.04334735152144089,2.9354276596692274e-05,9.212802727547433e-08,2.887844946317087e-05,2.9825283871799426e-05,2.9354276596692274e-05,9.212802727547433e-08,2.887844946317087e-05,2.9825283871799426e-05,-0.0553011026293471,17.289069907957796,-47.52,38.43,0.0013363305396469633,0.13014627436538975,-0.29498291015625,0.8201751708984375,0.16800747475444885,0.003370110789067747,0.16109564728891498,0.17513337189374314,0.000498939731499659,0.0006535352106020567,4.180349300704569e-07,0.002920974845976801,0.00040098418772232446,0.002656417349570825,8.217280160309481e-08,0.03038033204616272,-0.6801673607453299,0.010046114998985708,-0.6961585574333122,-0.6610964674439295,-0.0022944711798189733,0.007990605222464859,-0.0570831298828125,0.0352020263671875,0.05534825558229016,1.2205635382931763,-2.32391357421875,2.32086181640625,34.51914027149323,0.06022343959663416,34.41,34.61,0.5766002463556078,0.004974922199760741,0.5578000545501709,0.5961999893188477,-0.13173064527405834,0.0032366121981665685,-0.14480000734329224,-0.12019997835159305,-0.7583846458757865,0.005740300334841238,-0.7906000018119812,-0.7325999736785889,31.328764116218014,0.027434276163194944,31.189910888671875,31.6170654296875,0.13118461973423806,0.0009044214926567953,2,3
42,0.042657372665602884,0.0001472603037506604,0.04197126499383968,0.043347372042818,0.04265735247088205,0.00014726023403514936,0.04197124512393483,0.04334735152144089,2.9350527817925067e-05,1.0132287507700483e-07,2.887844946317087e-05,2.9825283871799426e-05,2.9350527817925067e-05,1.0132287507700483e-07,2.887844946317087e-05,2.9825283871799426e-05,-0.0015752262443437866,14.672378103809592,-33.64,25.16,0.0012204274136505186,0.12896278826751134,-0.304046630859375,0.8890228271484375,0.15606516225975955,0.003629336759304747,0.1492778312135524,0.1638314882661961,0.00023193138839461782,0.0003839667899924964,8.692406427070869e-07,0.0019462393687026086,0.00018613447412916428,0.0013915723846326653,1.128569993234232e-07,0.01667863071312258,-0.7162725877237671,0.01093548228238612,-0.7359651677395491,-0.6963824129916584,-0.0023588395756591702,0.008131341883565426,-0.057586669921875,0.0365753173828125,0.06995321537336822,1.1675091729924385,-2.45208740234375,2.777099609375,34.61769230769228,0.016819924207042522,34.59,34.65,0.5698394977601136,0.004351346417232211,0.5537999868392944,0.587399959564209,-0.13408157315475466,0.003014558855424696,-0.14740002155303955,-0.1218000054359436,-0.7643282254644801,0.005545862428177071,-0.79339998960495,-0.7380000352859497,31.37617715966475,0.022881652583480745,31.21197509765625,31.61557006835937,0.15158371040723986,0.00011962600197893918,2,3
43,0.04265192845786404,0.00012755443405216608,0.04197126499383968,0.043347372042818,0.04265190826572053,0.00012755437366574645,0.04197124512393483,0.04334735152144089,2.934678191514903e-05,8.776419481565868e-08,2.887844946317087e-05,2.9825283871799426e-05,2.934678191514903e-05,8.776419481565868e-08,2.887844946317087e-05,2.9825283871799426e-05,-0.052459711620017065,18.175638882816774,-40.42,34.54,0.0012481420440247823,0.1277064938518389,-0.2954864501953125,0.7485809326171875,0.14653410969078906,0.0017729681414317344,0.14333271575503384,0.1506735781883356,0.0003480788203688784,0.00043188738243071415,2.9062129027686746e-06,0.0018867305433356199,0.00024308929829570743,0.0015312926008726256,8.738710657743912e-08,0.01481726186718774,-0.7453046230656759,0.004736190531865985,-0.7519319399340987,-0.7360970078032878,-0.0023154601009441078,0.007995769222108881,-0.0572662353515625,0.0358428955078125,0.0554382289507411,1.1383114823304892,-2.25677490234375,2.41546630859375,34.646108597285014,0.03720150544715319,34.59,34.73,0.5658389475485887,0.004684181867711998,0.5485999584197998,0.5842000246047974,-0.1354804474264522,0.003463213489776483,-0.14960002899169922,-0.1226000189781189,-0.7673904973223518,0.0054633176209099,-0.792199969291687,-0.7416000366210938,31.31995540867793,0.016365755569995075,31.20758056640625,31.52850341796875,0.14927905004240882,0.0004984935573170685,2,3
44,0.039430370502102685,0.0010442326155989225,0.030962408602012863,0.04678763966526387,0.03943035183510057,0.001044232121241625,0.03096239394388635,0.046787617515206034,2.7130179708099028e-05,7.184872512609504e-07,2.1303774194142445e-05,3.2192369893370815e-05,2.7130179708099028e-05,7.184872512609504e-07,2.1303774194142445e-05,3.2192369893370815e-05,0.20269154650833804,104.57019771524492,-569.87,465.54,0.0014789834928270974,0.1378106614082898,-0.324920654296875,1.06878662109375,0.3128828800482318,0.052233899820720665,0.1425410066576503,0.3666518326262824,0.03915150478269243,0.07634977877923621,1.4258246462183545e-06,0.4678717799935506,0.012822024457573505,0.05430790986899687,5.33799007218505e-08,0.40607374067315616,-0.2787497486102401,0.14912232635259873,-0.7528341171337268,-0.15788295946007844,-0.0022168369034850084,0.007745121243719241,-0.05474853515625,0.0330047607421875,-0.039831734827787325,1.610151972900197,-6.14776611328125,8.80584716796875,33.77895927601814,0.2787030453400697,33.66,34.77,0.4743822708382329,0.02622413666395204,0.35500001907348633,0.5742000341415405,-0.2415446645208801,0.02952973009608427,-0.2653999924659729,-0.1281999945640564,-0.8208415991991755,0.015778675156989625,-0.8777999877929688,-0.7502000331878662,32.089300684790345,0.23010478727043285,31.164947509765625,32.406280517578125,0.07690132880972575,-0.0021254071842307133,2,3
45,0.03917393263198105,0.0002097493156403889,0.037842943846904606,0.04197126499383968,0.03917391408638117,0.00020974921634152205,0.03784292593141665,0.04197124512393483,2.6953736894811827e-05,1.443186192397228e-07,2.603794623728521e-05,2.887844946317087e-05,2.6953736894811827e-05,1.443186192397228e-07,2.603794623728521e-05,2.887844946317087e-05,-0.011012157195363493,15.84477151576833,-41.59,27.93,0.0009026253757155332,0.1383100532218111,-0.2851409912109375,1.3036651611328125,0.2609526205647666,0.013492975647482149,0.2405196665998601,0.2891902575585917,0.0006707568610709065,0.0009111074759383527,1.2909496227344057e-06,0.004201427180053981,0.0005007916980257523,0.0037299620984558154,1.1976152360375532e-07,0.041811727708741295,-0.3980590087834422,0.04109029021033552,-0.4594227239958994,-0.3119358576346499,-0.0022207336457337012,0.007592435681266414,-0.0535125732421875,0.0323638916015625,0.16838864991218916,2.2711372669522243,-7.93609619140625,8.71124267578125,33.6406334841629,0.02057007801589521,33.59,33.68,0.45022045820258094,0.012289123827424036,0.3115999698638916,0.6241999864578247,-0.24786725735673004,0.005647209849913994,-0.2871999740600586,-0.2006000280380249,-0.8362494050676802,0.008606386456159416,-1.0039999485015871,-0.6856000423431396,32.175382944485136,0.018305031994267067,32.00482177734375,32.41973876953125,0.14249363867684478,-0.00025781849311258987,2,3
46,0.039140049275140434,0.00021935379529851336,0.03853099737139378,0.03921905089588296,0.039140030745581485,0.00021935369145272728,0.03853097913016968,0.03921903232892271,2.6930423353789953e-05,1.5092700906233206e-07,2.651136344159949e-05,2.698478064591377e-05,2.6930423353789953e-05,1.5092700906233206e-07,2.651136344159949e-05,2.698478064591377e-05,0.010537178399773918,13.340757197222338,-42.12,26.24,0.0010854811594930237,0.13170062632648236,-0.2445831298828125,1.0498809814453125,0.2249877943979368,0.008162454050111739,0.21077824651494315,0.2420955976034332,0.00033033911527258875,0.0004776168467740365,3.358467250385035e-07,0.0020500777183975914,0.0002810670111995496,0.0020557976546225496,1.1839219114448408e-07,0.02228495776685098,-0.5069736652449411,0.024831223431308738,-0.5491619062771991,-0.4598723387455153,-0.0021842796397472954,0.007577717858497006,-0.0546112060546875,0.03424072265625,0.01219007002753884,1.4375362620397811,-3.62396240234375,2.9296875,33.637239819004456,0.014176695169892502,33.61,33.66,0.4416021395895697,0.009587457279713496,0.41040003299713135,0.4637999534606934,-0.2461277208386428,0.004461586276810044,-0.26340001821517944,-0.2347999811172485,-0.8420464010889361,0.006483810387256793,-0.8690000176429749,-0.8115999698638916,32.133879891818516,0.017159128996256285,32.009246826171875,32.3675537109375,0.14475544246536612,0.00013181095534035145,2,3
47,0.03910275468117209,0.00028356549212452364,0.03577878327343708,0.04128321146935048,0.03910273616926899,0.00028356535787984365,0.035778766335157565,0.0412831919251818,2.6904762701261843e-05,1.9510805154477245e-07,2.4617694624342375e-05,2.8405032258856597e-05,2.6904762701261843e-05,1.9510805154477245e-07,2.4617694624342375e-05,2.8405032258856597e-05,-0.0863839411931016,20.621833090545284,-90.71,66.81,0.0013577407302043886,0.1301389627266358,-0.2461395263671875,1.02557373046875,0.2008679903273997,0.006114722701861799,0.18830422175078332,0.21195034348684968,0.000516023030741504,0.0007452321266489284,1.089444004595603e-06,0.003642848597079568,0.0003688112108261549,0.002944943912809518,9.153618350105085e-08,0.039502706605316566,-0.5804184370355394,0.018137389164770867,-0.6134522085406917,-0.5495539377403216,-0.0022466890494636828,0.00756640938883672,-0.0535125732421875,0.0340118408203125,0.07224056814661342,1.077101328668313,-3.45916748046875,2.410888671875,33.66248868778285,0.01875433243695769,33.63,33.71,0.44075699858255735,0.007684063869963502,0.4129999876022339,0.4594000577926636,-0.2437953147754072,0.0037546061294863853,-0.2621999979019165,-0.23079997301101685,-0.8430340031537283,0.005722372366201306,-0.8709999918937683,-0.8162000179290771,32.068113840399185,0.02951194351516631,31.9395751953125,32.30502319335937,0.1402318348883234,0.00021151344680756654,2,3
48,0.03903458405730334,0.0003047868827564002,0.03853099737139378,0.03921905089588296,0.03903456557767341,0.0003047867384651459,0.03853097913016968,0.03921903232892271,2.6857857707653203e-05,2.0970949033844559e-07,2.651136344159949e-05,2.698478064591377e-05,2.6857857707653203e-05,2.0970949033844559e-07,2.651136344159949e-05,2.698478064591377e-05,0.08711337291489915,24.574715281445908,-53.96,69.58,0.001224152169865125,0.12725337820399454,-0.22686767578125,1.0080413818359375,0.1838726386007056,0.003439232844384917,0.17744552319841256,0.19019589064411072,0.0006030226724355931,0.0008297606002086637,4.504996062249514e-06,0.004066522209929193,0.0004768960300067551,0.0029716201595448768,8.726434785888415e-08,0.03687644188855098,-0.6321761235298625,0.010132924379614876,-0.6463685687186908,-0.6137056745055817,-0.0022144098708849268,0.007479238280589728,-0.0534210205078125,0.0344696044921875,0.04435150616665239,0.9090342605188284,-2.42767333984375,1.84783935546875,33.815158371040724,0.07950979498023526,33.68,33.97,0.44389472915534334,0.005981390267758096,0.4206000566482544,0.4601999521255493,-0.2411580344810565,0.003169227566639337,-0.2555999755859375,-0.2297999858856201,-0.8413770236371529,0.0053087929550782965,-0.8686000108718872,-0.8154000043869019,32.01960294627069,0.01899232548309529,31.866973876953125,32.279693603515625,0.13570822731128074,0.0012198405727817528,2,3
49,0.038933399715466936,0.00033903791024993016,0.03853099737139378,0.03921905089588296,0.03893338128373931,0.00033903774974365923,0.03853097913016968,0.03921903232892271,2.678823753054793e-05,2.332760082091572e-07,2.651136344159949e-05,2.698478064591377e-05,2.678823753054793e-05,2.332760082091572e-07,2.651136344159949e-05,2.698478064591377e-05,0.043764140271492925,22.268275462667702,-51.6,37.91,0.0013700357284042992,0.12698629040899867,-0.2385406494140625,1.048919677734375,0.1759002167489149,0.002097980901727768,0.1719923556986026,0.180606066467922,0.0011113529481918056,0.0012772390522561095,5.195323504429086e-06,0.005716791804902578,0.0008968844576197765,0.004702652610231634,8.730903123567446e-08,0.04784941193063022,-0.6569093798976653,0.005835862948157761,-0.6644925313357483,-0.6463584430504168,-0.0021124518439953714,0.007439237091484339,-0.0536956787109375,0.0315399169921875,0.0940086953443074,1.1577228766082135,-2.65960693359375,2.46734619140625,34.13904977375565,0.08359297131272418,33.97,34.27,0.4409752032330629,0.008198872916590041,0.410599946975708,0.4584000110626221,-0.2411593283410681,0.003666457748151557,-0.25620001554489136,-0.23019999265670776,-0.843345409895971,0.0058479249217161106,-0.8694000244140625,-0.8145999908447266,32.02276306191787,0.024793245981757004,31.88916015625,32.2454833984375,0.13122171945701358,0.0012865798748151625,2,3
50,0.03418824325387379,0.0061953194202385604,0.00756858876938092,0.060548710155047376,-0.03418822706858229,0.006195316487269765,-0.06054868149026664,-0.00756858518628333,-2.352331899423393e-05,4.262707326353397e-06,-4.166071397965634e-05,-5.207589247457042e-06,-2.352331899423393e-05,4.262707326353397e-06,-4.166071397965634e-05,-5.207589247457042e-06,-0.042380548487417805,33.02814887287565,-222.82,192.64,0.0008673274939857243,0.27794859361671537,-0.4510345458984375,1.4994964599609375,6.172140420336005,0.31036252053794,5.685740872339434,7.220458679902513,0.5872501778101934,0.6855821902829295,0.00040567169914710325,2.159285630544856,0.3939644525515886,1.0049594976811824,3.838558626512168e-08,4.877759967280923,2.4153965347010407,0.5302163962646707,1.4784613148806092,2.9208186834557384,-0.003605184751291111,0.023160243446415388,-0.453826904296875,0.4124908447265625,-0.008371507180980831,5.26285536158664,-16.37725830078125,12.85858154296875,32.612624434389126,0.03295944498653405,32.55,32.66,0.8565139164476924,0.016403041033964706,0.7374000549316406,0.9559999704360962,0.01325106939273738,0.018194284046712854,-0.16259998083114624,0.1390000581741333,-0.3088781245568215,0.12725105476360174,-0.40219998359680176,0.6217999458312988,32.57263580880802,0.2479275571127495,32.169647216796875,33.203338623046875,0.13570822731128074,-0.00043759102582632353,3,0
51,0.028620537335224117,0.007664909706609955,0.006880535244891746,0.05504428195913397,-0.02862052378577899,0.007664906077912423,-0.0550442559002424,-0.006880531987530299,-1.969244294079239e-05,5.2738631450491805e-06,-3.787337634514213e-05,-4.7341720431427655e-06,-1.969244294079239e-05,5.2738631450491805e-06,-3.787337634514213e-05,-4.7341720431427655e-06,0.024192818772971532,44.214206425653494,-283.57,178.35,0.0015304032137297555,0.2807006311852647,-0.3886871337890625,1.4993133544921875,5.1425148518126464,0.3145285785514973,4.591183103575589,5.679596501899363,0.1404396519343593,0.13261793678557174,2.215155571932021e-05,0.4487598180371573,0.11857531558401785,0.3318825565616845,3.617476096451355e-08,2.039145800894892,2.2366879898703043,0.2636281821917833,1.8531672359223528,2.700830955149531,-0.0037400726201603047,0.018248126457407275,-0.13311767578125,0.2161102294921875,0.03483144811212727,2.360379327028374,-5.68695068359375,5.93414306640625,32.584027149321216,0.034042549706451146,32.53,32.65,0.8563558148192639,0.007371552200411114,0.7818000316619873,0.8913999795913696,0.004084830457120657,0.011658785023531505,-0.12059998512268065,0.07039999961853027,-0.3378214501564807,0.016268867484876916,-0.4868000149726868,-0.2710000276565552,31.983474647822536,0.09543833998926464,31.77816772460937,32.328826904296875,0.09047215154085382,0.0004723670606023621,3,0
52,0.036387446006638284,0.005814578249502695,0.0013761070489783493,0.05504428195913397,-0.036381980395149865,0.005848569395110469,-0.0550442559002424,0.0034402659937651497,-2.5032737987852943e-05,4.024126880434797e-06,-3.787337634514213e-05,2.3670860215713828e-06,-2.5032737987852943e-05,4.024126880434797e-06,-3.787337634514213e-05,2.3670860215713828e-06,-0.15425501837715566,37.174852514878424,-240.18,345.41,0.0015594944713798824,0.2801814768836525,-0.40264892578125,1.4993133544921875,4.219523783209275,0.31628407097036754,3.6232698915991115,4.7894904144513335,0.1969453428705857,0.15967219331520874,0.0010990447719610836,0.4660467921853678,0.14091700037669572,0.3188145707519366,2.713927038655584e-08,3.0879064944300088,1.6190943340762871,0.12751648062448606,1.4070258942709797,1.8644028283423475,-0.003675975766032549,0.01410722906428139,-0.17376708984375,0.2520904541015625,0.0002834101939149584,2.846542177082534,-9.98382568359375,6.90460205078125,32.66312217194561,0.020263613529963358,32.61,32.71,0.8469926746668631,0.008475937042982025,0.7539999485015869,0.9065999984741212,-0.01325107554980905,0.013213283868875715,-0.09939998388290404,0.03299999237060547,-0.3668141294312741,0.017853894407782078,-0.4566000103950501,-0.2738000154495239,31.68598380003507,0.07655617590396466,31.4813232421875,32.065673828125,0.11082838563754592,-2.234649293472895e-05,3,0
53,0.037657309496689266,0.0009519540321559687,0.030962408602012863,0.04541153261628554,-0.037657291669084415,0.0009519535814848752,-0.045411511117699976,-0.03096239394388635,-2.591021998928847e-05,6.549947068050647e-07,-3.124553548474225e-05,-2.1303774194142445e-05,-2.591021998928847e-05,6.549947068050647e-07,-3.124553548474225e-05,-2.1303774194142445e-05,0.006252828054298807,16.35719613326767,-157.94,80.39,0.0005619766454264006,0.2828111900631773,-0.50390625,1.49945068359375,3.163067541045456,0.24611544284569914,2.7310627122959183,3.618115800397364,0.003431357484475648,0.006251240188148098,8.318629120708609e-07,0.03098439299931257,0.00333224259856777,0.019464089772399253,6.996761980904154e-08,0.2670645755206962,1.1705390668755953,0.1520165092904583,0.8947820127648441,1.4498183411488044,-0.003522122558025761,0.012726584751613541,-0.2056732177734375,0.290313720703125,0.09876260588578016,3.0804214603462583,-12.97607421875,8.08868408203125,32.792895927601826,0.03775046709937542,32.71,32.84,0.8434473413297553,0.008149851590925827,0.7957999706268309,0.8846000432968141,-0.033002801429582874,0.008023123351483539,-0.09619998931884766,0.0196000337600708,-0.3795451104864373,0.018188735388776786,-0.4666000008583069,-0.3330000042915344,31.525562898444317,0.0925132258969188,31.25164794921875,31.764862060546875,0.10633484162895927,0.000434255728373378,3,0
54,0.03590635905412217,0.00712517634068466,0.01513717753876184,0.05366817491015562,-0.035906342055446724,0.007125172967506054,-0.05366814950273634,-0.01513717037256666,-2.470547350677072e-05,4.902498051961148e-06,-3.692654193651357e-05,-1.0415178494914083e-05,-2.470547350677072e-05,4.902498051961148e-06,-3.692654193651357e-05,-1.0415178494914083e-05,-0.04932711337291537,22.99291414492808,-85.1,114.32,0.00121311633074842,0.2904588691824628,-0.428375244140625,1.49945068359375,2.4937725994928184,0.13698244982291616,2.279513202867516,2.834874341324168,0.029020674240851394,0.035823797277366086,3.1572892579603025e-05,0.1488236197455097,0.022483921963906545,0.0927921285167707,2.8128424034434832e-08,0.8775794421075238,0.7382498781578649,0.0860470993820298,0.604021419988384,0.8915108656881572,-0.003326481888279675,0.01624586031584944,-0.2578582763671875,0.4302520751953125,0.028115987358609987,1.778171499242701,-4.59136962890625,4.79583740234375,32.710542986425345,0.04196178188057178,32.65,32.79,0.8281776334405895,0.006954278908819277,0.7841999530792236,0.8696000576019287,-0.01848179216426058,0.017284327872166962,-0.07419997453689575,0.05219995975494385,-0.4141595336375445,0.012927887236825432,-0.489799976348877,-0.35259997844696045,31.063283711033936,0.13533067130343068,30.85995483398437,31.4400634765625,0.1085665818490246,-0.0006110042580630993,3,0
55,0.0289445593234625,0.009794386048036393,0.0,0.05435622843464479,-0.02803855701954649,0.012147260953565005,-0.054356202701489366,0.015825223571319692,-1.9292018845718508e-05,8.357961755188084e-06,-3.739995914082785e-05,1.088859569922836e-05,-1.9292018845718508e-05,8.357961755188084e-06,-3.739995914082785e-05,1.088859569922836e-05,0.203955329375176,33.56443540237775,-161.73,146.34,0.0005955850433359076,0.2950255479223744,-0.447784423828125,1.49945068359375,2.169872689665739,0.11046605716386544,1.9880996206025807,2.4055902025009672,0.0200284062629333,0.02561495732758005,0.0006048433238383119,0.1228583507300032,0.014563439058351606,0.09915380906254796,7.709785476706088e-08,1.330308005164228,0.5503327116375198,0.06732926562474895,0.4637725064070022,0.6507968746474535,-0.0033348220763661576,0.02244131019636775,-0.4028778076171875,0.4373016357421875,0.07724511489024047,1.8611294919921009,-3.3660888671875,7.09075927734375,32.80484162895932,0.04668753634360276,32.66,32.87,0.8340400730475142,0.011180891862966514,0.8034000396728516,0.8841999769210815,-0.05178754612234901,0.01833428873381136,-0.1565999984741211,-0.007200002670288086,-0.4032173305719077,0.02577582689184451,-0.4729999899864197,-0.28280001878738403,30.92104413203425,0.07283359586682463,30.70053100585937,31.19580078125,0.12439920836867402,0.0004956696721402633,3,0
56,0.03510823252373612,0.006193105204525173,0.004816374671424223,0.05298012138566645,-0.03510821590290781,0.006193102272604614,-0.05298009630398332,-0.00481637239127121,-2.415632025450772e-05,4.2611838288702325e-06,-3.64531247321993e-05,-3.313920430199936e-06,-2.415632025450772e-05,4.2611838288702325e-06,-3.64531247321993e-05,-3.313920430199936e-06,0.3571077184054289,40.10773872531197,-152.58,185.1,0.001627260866264759,0.2812620002448987,-0.4707183837890625,1.49945068359375,2.047647385015728,0.04695365641826724,1.8706677802014464,2.154970774480487,0.014803072066580672,0.01613663629804176,0.00034382284321176975,0.05879702055517243,0.01263355503788607,0.04442015630110372,5.481473475121845e-08,0.5091893275031297,0.4810859687380263,0.03198671947920174,0.3686143761339987,0.5143207433064879,-0.003222253204020679,0.016429988837432942,-0.1102752685546875,0.2388153076171875,0.03906015698461816,2.8354383817223234,-13.02642822265625,9.234619140625,32.83723981900453,0.01685931803164376,32.79,32.87,0.8400967388269684,0.007523362622881598,0.7976000308990479,0.8741999864578247,-0.057978176954132536,0.01368445684660548,-0.09020000696182252,0.007799983024597169,-0.390077562190892,0.015624373083980332,-0.4625999927520752,-0.3309999704360962,30.855299906947106,0.039188433002672135,30.70199584960937,31.05487060546875,0.10178117048346057,-1.316330728095812e-05,3,0
57,0.03832707200553891,0.0016933604232101706,0.019953552210186062,0.04472347909179635,-0.03832705386085688,0.0016933596215447874,-0.04472345791894695,-0.01995354276383787,-2.637105200774113e-05,1.1651215042431018e-06,-3.077211828042797e-05,-1.372909892511402e-05,-2.637105200774113e-05,1.1651215042431018e-06,-3.077211828042797e-05,-1.372909892511402e-05,-0.4316030534351139,20.258189643055307,-127.18,95.27,0.00013353294330747207,0.2834623982986553,-0.44952392578125,1.4999542236328125,1.7359598196015946,0.09724317722669384,1.5828232279472156,1.901170808245616,0.013737577880158629,0.013512653570239879,1.4060705060784478e-05,0.046884577933970766,0.01091044439163578,0.03714980810395073,3.2264421245820074e-08,0.36949177229751695,0.2931853969380812,0.04879508428936469,0.21210100747305946,0.3689166216967337,-0.003252766837675339,0.02326418257820197,-0.2598724365234375,0.4643096923828125,0.09979663794048817,1.8464859348496327,-4.84771728515625,5.596923828125,32.82882352941177,0.018677316758541725,32.79,32.87,0.8395437760968673,0.006941238228848489,0.8071999549865723,0.8658000230789185,-0.057375070550069227,0.026497710915522263,-0.12220001220703125,0.02740001678466797,-0.3906742483315824,0.01311407029296408,-0.4462000131607056,-0.350600004196167,30.910589661300893,0.03302626234653984,30.728302001953125,31.13409423828125,0.10404297427198188,0.00022080780904310898,3,0
58,0.04059826954926828,0.003037325386114941,0.02064160573467524,0.05022790728770975,-0.04059825032936189,0.003037323948193816,-0.050227883508971186,-0.020641595962590898,-2.7933756002894206e-05,2.089840458203979e-06,-3.4559455914942184e-05,-1.4202516129428297e-05,-2.7933756002894206e-05,2.089840458203979e-06,-3.4559455914942184e-05,-1.4202516129428297e-05,-0.3097936104042979,97.67697911025671,-815.51,597.3,0.0005605013463455498,0.29379949215898993,-0.4336395263671875,1.49945068359375,1.4087659225637232,0.10422603705143478,1.289143883335652,1.6631564307505724,0.019586817949227314,0.0162825037711289,0.0002121167939149625,0.056426762826058977,0.013673662252895343,0.051117221125889366,4.779848128411147e-08,0.3915734418806192,0.08816320056982423,0.05057197068727447,0.025185260952042654,0.21112921436587467,-0.003173239215578267,0.025705990140023127,-0.3164520263671875,0.7925262451171875,0.037404465559485185,1.9496059609133989,-4.63104248046875,4.72564697265625,32.833257918552086,0.01886535989087813,32.81,32.89,0.8353883364604654,0.0063926709383335285,0.8118000030517578,0.8957999944686891,-0.05266025202644856,0.010970761394919851,-0.14459997415542605,0.001799941062927246,-0.4014608370886139,0.013135476580220629,-0.4517999887466431,-0.3065999746322632,30.82567260682232,0.04681795868643101,30.6099853515625,31.097381591796875,0.17189708792762226,-0.0002085561497326266,3,0
59,0.039814092659991036,0.0031427090242841012,0.02889824802854533,0.05504428195913397,-0.03981407381132845,0.0031427075364726447,-0.0550442559002424,-0.028898234347627262,-2.739420084127389e-05,2.1623499732152852e-06,-3.787337634514213e-05,-1.9883522581199616e-05,-2.739420084127389e-05,2.1623499732152852e-06,-3.787337634514213e-05,-1.9883522581199616e-05,0.2822426470588234,43.63765096458515,-268.89,292.91,0.0008973244781316645,0.2918304997076978,-0.4084625244140625,1.4994964599609375,1.1956962237560174,0.07051728160843483,1.0798238935896185,1.3660044548628365,0.016240174948773403,0.014629294330640773,0.00016285494119190228,0.06418721526737378,0.01226139525532904,0.05307613199172826,4.2141558909136734e-08,0.40392589572772986,-0.03788822685123516,0.0400876100832056,-0.09116395371209672,0.029610346878763905,-0.003171140826825441,0.03082474683402945,-0.2185821533203125,0.3545379638671875,0.0344970513795318,1.6970464553207742,-3.45611572265625,4.608154296875,32.9806787330316,0.11771578222490027,32.81,33.21,0.8391166921023698,0.005752801236670789,0.812000036239624,0.8583999872207642,-0.057513620507675535,0.008211841900660367,-0.10119998455047607,0.02219998836517334,-0.3927896861760703,0.012069549609153176,-0.4484000205993652,-0.3450000286102295,30.867071391994727,0.02705485805437368,30.684478759765625,31.07098388671875,0.10407239819004524,0.0017836059012529594,3,0
60,0.03361343835813286,0.011588166546133295,0.0,0.07568588769380921,-0.033608752400628675,0.011601698465813768,-0.0756858518628333,0.0020641595962590893,-2.312460959535114e-05,7.982585740371287e-06,-5.207589247457043e-05,1.4202516129428296e-06,-2.312460959535114e-05,7.982585740371287e-06,-5.207589247457043e-05,1.4202516129428296e-06,-0.12796154933559598,64.81105208903351,-346.01,596.91,0.0011995410416269483,0.29130015347923005,-0.4182586669921875,1.4993133544921875,1.0125016672300824,0.0404343470820915,0.9157079434249268,1.0890974807546243,0.02728728656004199,0.02160360948226384,1.1815544290888171e-06,0.07691735663408998,0.021789622237838896,0.07230429832737872,4.215733140355837e-08,0.4433871537945555,-0.1603179189085269,0.036614925876145184,-0.20407015364396985,-0.09168570224549977,-0.003025005625761377,0.03152437478825372,-0.3044586181640625,0.4285125732421875,0.09355640697351053,3.2586416015818824,-13.262939453125,12.06817626953125,33.26004524886886,0.022761755205853967,33.18,33.29,0.8410896864687814,0.009996393282124974,0.7882000207901001,0.8926000595092773,-0.02591335508294836,0.028154948563505026,-0.1420000195503235,0.07060003280639647,-0.38405435828089707,0.01872227722615481,-0.454200029373169,-0.2914000153541565,30.96094317530393,0.02317251526338671,30.8292236328125,31.17523193359375,0.14249363867684478,0.0002365615306791937,3,0
61,0.032939444252085864,0.01714499296883621,0.0,0.05848454958157984,-0.03278384851130257,0.017440634813050047,-0.05848452189400755,0.00756858518628333,-2.255703183563713e-05,1.2000084571402705e-05,-4.024046236671351e-05,5.207589247457042e-06,-2.255703183563713e-05,1.2000084571402705e-05,-4.024046236671351e-05,5.207589247457042e-06,0.1840090472151545,18.96156227534765,-313.8,156.09,0.0010875061437481824,0.2775430745881086,-0.3750457763671875,1.4993133544921875,0.887061243889388,0.07373728309211013,0.7999506887524526,1.0255621026887676,0.01773693789152848,0.022327505336672524,7.569072204217244e-07,0.06849766722167963,0.012843786644023254,0.037710244610336965,2.7808803926276934e-08,0.4112610857698661,-0.2269425288769671,0.023473905547931717,-0.2619809224981845,-0.181546092730061,-0.003201706920681466,0.015686393543502656,-0.08441162109375,0.0849151611328125,0.05391817461447428,2.074102070253307,-4.09088134765625,5.25970458984375,33.286756756756795,0.04623017543783424,33.21,33.39,0.8368499996681553,0.006502696307924836,0.8087999820709229,0.8697999715805054,-0.017024691460498374,0.010212351573063274,-0.08579999208450317,0.02799999713897705,-0.3943078146912076,0.014218427068297675,-0.4574000239372253,-0.3461999893188477,31.1232016512262,0.09071378581668164,30.94638061523437,31.37969970703125,0.11082838563754592,0.0006355132601505607,3,0
62,0.04219036801097123,0.0005789412532206003,0.03715489032241543,0.0488518002387314,-0.04219034803733827,0.0005789409791400448,-0.04885177711146513,-0.037154872732663616,-2.9029203923594464e-05,3.983421925865221e-07,-3.3612621506313634e-05,-2.556452903297093e-05,-2.9029203923594464e-05,3.983421925865221e-07,-3.3612621506313634e-05,-2.556452903297093e-05,-0.02513146734520788,8.42820907530752,-45.74,37.84,0.0006517854622904093,0.2831355227728037,-0.4501190185546875,1.49945068359375,0.7409257719942037,0.03226110311390126,0.6852844543235445,0.7995309543569438,2.5209797558359235e-05,7.507228082125174e-05,2.374035361926884e-07,0.0003876990673780022,1.939425797249057e-05,0.0002819398526029332,1.310571355066421e-07,0.004201211335194055,-0.29804986133480554,0.019475598409993484,-0.3308392982913313,-0.2623572987022009,-0.0032107570452153183,0.025280033032864347,-0.2471466064453125,0.5087127685546875,0.005135542603611958,3.2838746298187167,-16.66107177734375,10.07232666015625,33.436696832579194,0.01654401612685065,33.39,33.47,0.8401291084633459,0.007796059609080901,0.7862000465393066,0.9048000574111938,-0.013043805904453018,0.005633684753720872,-0.07940000295639038,0.05180001258850098,-0.3858986246559344,0.015837050019820838,-0.4585999846458435,-0.2721999883651733,31.30371870021763,0.02667771871377447,31.117950439453125,31.52410888671875,0.11082838563754592,4.842851901675678e-05,3,0
63,0.03519535744713249,0.003288459484306068,0.028210194504056162,0.04953985376322058,-0.035195340785057316,0.0032884579274938845,-0.049539830310218164,-0.02821018114887423,-2.421626680836117e-05,2.2626339959769194e-06,-3.408603871062791e-05,-1.941010537688534e-05,-2.421626680836117e-05,2.2626339959769194e-06,-3.408603871062791e-05,-1.941010537688534e-05,-0.01590048063330478,20.362908957861894,-89.41,99.7,0.0008035229251101472,0.2819781308590086,-0.41876220703125,1.4994049072265625,0.6320633412136861,0.033100390021859334,0.5784466624265424,0.6969091894855095,0.0012879107279056962,0.002732368104670059,2.98341829448072e-07,0.010599111199293862,0.0009913947258946524,0.004756075751705606,6.455539172320335e-08,0.0419038382152858,-0.3655703220032994,0.017981763043475776,-0.39600382332866696,-0.33116233934924816,-0.0031995910385773994,0.017638184679156437,-0.2798309326171875,0.3646087646484375,0.0036588906872027202,2.64316785059411,-10.35003662109375,6.817626953125,33.35452488687788,0.06847647523921056,33.23,33.45,0.8332941266684483,0.009053164964130543,0.7970000505447388,0.899399995803833,-0.020481744546355783,0.014576064383648672,-0.09700000286102296,0.09060001373291016,-0.4030021664620728,0.01823910497808317,-0.4617999792098999,-0.2922000288963318,31.303853075699802,0.021299264077372943,31.12823486328125,31.4813232421875,0.10630477806050324,-0.0010395455101337382,3,0
64,0.013164861214038284,0.009267083964790238,0.0006880535244891746,0.04816374671424223,0.0011472742250701036,0.016058515885217714,-0.0481637239127121,0.03509071313640453,7.893857004063915e-07,1.104911322205032e-05,-3.313920430199936e-05,2.4144277420028103e-05,7.893857004063915e-07,1.104911322205032e-05,-3.313920430199936e-05,2.4144277420028103e-05,0.09317217981340092,26.893291800243148,-124.93,183.76,0.0010686374822479901,0.2863933810638724,-0.43414306640625,1.4994964599609375,0.5879551283273156,0.0156682614145589,0.5548135195761077,0.6485783499632533,0.004716280841325289,0.009630338515191765,2.603045720537986e-07,0.04561779166506734,0.0036272024173208788,0.02622767413850529,3.6058584451659215e-08,0.303607420529983,-0.3957284393572687,0.00944483723141028,-0.4136683464809801,-0.3855023509164784,-0.003167288193176604,0.020574473770864108,-0.3213958740234375,0.5467987060546875,0.11806292785827555,1.7301718705781792,-4.75921630859375,6.56280517578125,33.20891402714934,0.025414159173519774,33.16,33.25,0.8330397110002116,0.009096620014970849,0.7979999780654907,0.8830000162124634,-0.07237398887436215,0.028742357291060026,-0.14160001277923584,-0.003799974918365479,-0.406628523405983,0.021318034553922564,-0.4661999940872192,-0.2657999992370605,31.356324472073354,0.03354623099892453,31.17376708984375,31.634765625,0.10630477806050324,-0.0002811766929413937,3,0
65,0.02156769699629701,0.008513947420473992,0.0013761070489783493,0.0571084425326015,0.003086321160036803,0.022981013185498188,-0.05710841549650149,0.02821018114887423,2.123553146542457e-06,1.581215963286755e-05,-3.9293627958084963e-05,1.941010537688534e-05,2.123553146542457e-06,1.581215963286755e-05,-3.9293627958084963e-05,1.941010537688534e-05,-0.0681622844218263,37.63277318584928,-323.02,339.8,0.0008533912858281605,0.28653200683012675,-0.4090118408203125,1.49945068359375,0.5493519744553184,0.030428515134367305,0.4790178379535901,0.5833212217423703,0.003819797582898429,0.00589429357060816,2.3897089809669644e-07,0.028424141564236095,0.003504331910148089,0.018404567644752904,5.5516559127610776e-08,0.1651252792154254,-0.4183381622652384,0.021869209317441456,-0.4618220352209033,-0.3936583017207152,-0.0031359119038586285,0.024374740596888864,-0.3981170654296875,0.5363616943359375,0.057445727685481236,2.9036287524877764,-10.04486083984375,8.48846435546875,33.164615384615324,0.011433915512505515,33.15,33.18,0.8328591508026417,0.01125246510755748,0.7949999570846558,0.9085999727249146,-0.061105992920444815,0.011776620285636231,-0.14899998903274536,-0.032599985599517815,-0.40759192461213584,0.02480661553125517,-0.4711999893188477,-0.28280001878738403,31.46426172841237,0.02061610663738344,31.303131103515625,31.714599609375,0.12666101215719536,-4.0712864242281295e-05,3,0
66,0.0362356694938836,0.0008257472688054174,0.034402676224458736,0.03921905089588296,-0.03623565233930577,0.000825746877882728,-0.03921903232892271,-0.0344026599376515,-2.4932056500961968e-05,5.681577806875376e-07,-2.698478064591377e-05,-2.367086021571383e-05,-2.4932056500961968e-05,5.681577806875376e-07,-2.698478064591377e-05,-2.367086021571383e-05,0.005763574660633423,10.624719681401317,-57.41,39.08,0.0010983855006028258,0.2813237572877656,-0.3864898681640625,1.4994964599609375,0.4676522363687092,0.023217761788067268,0.4293081583291805,0.5184530880915771,0.0008721783294287962,0.002568371880990689,2.769513425189177e-07,0.016748772389282053,0.00010487888622200624,0.000798729790667092,8.058496008683803e-08,0.008304985954789946,-0.465012578181488,0.012777697336382466,-0.4876065409052998,-0.4439575930929561,-0.0031617051087964084,0.01303093816760888,-0.0688018798828125,0.0806121826171875,0.019696479591270032,1.3158096871979843,-2.89459228515625,3.30810546875,33.17004524886872,0.012201095476245094,33.15,33.21,0.8385699637533698,0.004985463580505504,0.8142000436782837,0.8525999784469604,-0.05294250992205125,0.0030633842949936733,-0.06499999761581421,-0.038600027561187744,-0.39462121181036897,0.010553892496124607,-0.4477999806404114,-0.3628000020980835,31.462585788434428,0.0220248731595236,31.33843994140625,31.686492919921875,0.11085972850678734,-7.966913849267669e-05,3,0
67,0.03445093337210392,0.004109445486349724,0.028210194504056162,0.03853099737139378,-0.03445091706245172,0.004109443540868853,-0.03853097913016968,-0.02821018114887423,-2.3704063684794924e-05,2.8275157733898037e-06,-2.651136344159949e-05,-1.941010537688534e-05,-2.3704063684794924e-05,2.8275157733898037e-06,-2.651136344159949e-05,-1.941010537688534e-05,-0.06296296296296285,6.9874489876798185,-49.57,37.95,0.0007320822561037428,0.2889457222621084,-0.4533233642578125,1.49945068359375,0.4118969049990889,0.007045509661839732,0.4020606848247697,0.4287744104553959,0.00011970706759657185,0.0003304318113940744,1.926115293177445e-07,0.0015331798309864279,9.211130152513628e-05,0.000796823340765218,1.195672835034625e-07,0.010332811956174364,-0.4981449752054215,0.004264299051593192,-0.5031184529027248,-0.4877708991184437,-0.003226565298996153,0.011896598955296234,-0.0689849853515625,0.088531494140625,-0.005597873972140452,2.2620358359037414,-8.20159912109375,6.85882568359375,33.140950226244364,0.011862800232682168,33.11,33.16,0.8378168915244049,0.0068686039885188215,0.8006000518798828,0.8666000366210938,-0.05200986465239473,0.004755600042502411,-0.06620001792907715,-0.02460002899169922,-0.3960471718782304,0.014666236493323269,-0.4682000279426575,-0.3325999975204468,31.57286113273172,0.03530934065934098,31.38705444335937,31.7811279296875,0.1085665818490246,-8.6695498460188e-05,3,0
68,0.029165846007543458,0.00033542965616062566,0.02889824802854533,0.029586301553034506,-0.029165832199939994,0.000335429497362569,-0.029586287546380288,-0.028898234347627262,-2.0067644139462333e-05,2.3079333861643143e-07,-2.0356939785513888e-05,-1.9883522581199616e-05,-2.0067644139462333e-05,2.3079333861643143e-07,-2.0356939785513888e-05,-1.9883522581199616e-05,0.07312411648289517,6.6778845479090885,-29.51,28.53,0.001602656838073194,0.2828336118295001,-0.3891448974609375,1.49945068359375,0.3880321575451695,0.008100025992383283,0.37428965481922905,0.4038518742241214,3.9813326703546704e-07,1.5302106815130588e-07,2.6070852064179537e-07,1.2712436473135596e-06,2.7541933546610014e-07,8.179155400450858e-08,1.570645234284461e-07,5.655432418011208e-07,-0.5125740827107079,0.004896037406509409,-0.5205494201495043,-0.5032394534848155,-0.003278356589004821,0.010058075103470327,-0.0578155517578125,0.0542449951171875,0.16919253296744133,1.4293688869754957,-2.65655517578125,3.51409912109375,33.13678733031672,0.013150538850491335,33.11,33.15,0.8384723617568058,0.004795692430854888,0.8151999711990356,0.8536000251770021,-0.047435435147039434,0.0030586706096624155,-0.05839997529983521,-0.032199978828430176,-0.3946915671465106,0.010054922373995941,-0.4430000185966492,-0.3604000210762024,31.61338755899792,0.01882155393242789,31.445953369140625,31.79296875,0.11082838563754592,-1.4586367527539791e-05,3,0
69,0.03468988408705724,0.004661896884889343,0.028210194504056162,0.0460995861407747,-0.03468986766428071,0.004661894677868757,-0.046099564316453005,-0.02821018114887423,-2.386847441072665e-05,3.2076315453573297e-06,-3.171895268905653e-05,-1.941010537688534e-05,-2.386847441072665e-05,3.2076315453573297e-06,-3.171895268905653e-05,-1.941010537688534e-05,-0.040347752332485116,15.900562011610225,-98.39,145.22,0.0006239520962316461,0.2842756430392999,-0.4406890869140625,1.4994964599609375,0.3699222748382161,0.0022173823449927327,0.3625608496918797,0.3759506907607744,0.00029802044687971294,0.0006391203754089388,1.9999021809578842e-07,0.002777946532677039,0.0002733179229667894,0.0016795387699658627,1.194247037927267e-07,0.015401630595027532,-0.5238593106004253,0.001271711030260598,-0.5266444632024962,-0.5206018570246658,-0.003298441437528072,0.02387303403474889,-0.2700347900390625,0.399993896484375,0.04230771830478605,2.7670045567853845,-13.71612548828125,7.80792236328125,33.18475113122175,0.050226244343891766,33.13,33.29,0.8398008696259566,0.006793017951217572,0.7785999774932861,0.8769999742507935,-0.029749117048212467,0.02172608441808044,-0.0666000247001648,0.15779995918273926,-0.388905894243536,0.01382819062110387,-0.449400007724762,-0.3026000261306763,31.695854331379326,0.023693357655017847,31.599365234375,31.93511962890625,0.1085665818490246,0.0006835803306391593,3,0
70,0.030082883169125173,0.01013834360092936,0.0027522140979566985,0.06330092425300407,-0.030082868927380726,0.010138338801266446,-0.06330089428527877,-0.00275221279501212,-2.069861419315248e-05,6.975716442253357e-06,-4.355438279691344e-05,-1.8936688172571063e-06,-2.069861419315248e-05,6.975716442253357e-06,-4.355438279691344e-05,-1.8936688172571063e-06,0.0719281877297146,18.50151113535608,-78.47,103.58,0.0006893979592156156,0.3673845467032545,-0.6406402587890625,1.49945068359375,0.366393310981705,0.034497919944772366,0.3199033206361037,0.4466386291205969,0.00513412038448734,0.006302605498504026,5.946549393326999e-06,0.02501962264604568,0.0042557959721365455,0.017178008837404758,8.509448559679277e-08,0.16145155554081445,-0.5309078790331615,0.015958101090724246,-0.5443012779534908,-0.5005682084163865,-0.0026488889398970264,0.01886092479875726,-0.1955108642578125,0.284637451171875,-0.15342021331140215,5.893659220782398,-10.17303466796875,16.88995361328125,32.672624434389036,0.03920463935367799,32.61,32.73,0.9046064939343341,0.022547688587153968,0.7726000547409058,1.040600061416626,0.04447287211385117,0.048338527582218974,-0.15420001745224,0.17939996719360352,0.06919548142265723,0.04316221188950452,-0.15420001745224,0.319599986076355,32.06677015500013,0.028025346260323408,31.93661499023437,32.248443603515625,0.09725756290641786,-0.000582520817814922,3,1
71,0.0270207837194954,0.009206644416099913,0.008256642293870095,0.05917260310606901,-0.027020770927400503,0.00920664005751915,-0.059172575092760575,-0.008256638385036359,-1.8591727869370735e-05,6.334658141343828e-06,-4.0713879571027776e-05,-5.6810064517713185e-06,-1.8591727869370735e-05,6.334658141343828e-06,-4.0713879571027776e-05,-5.6810064517713185e-06,-0.024469889737065258,16.487272417710912,-87.5,71.32,-0.0008814980036814721,0.3358525552981925,-0.613128662109375,1.4995880126953125,0.8423892447151895,0.4461794874124945,0.4212073365442065,2.2126401679656933,0.0750936755675375,0.09815696133351667,0.00030703071936184187,0.3843786493668799,0.07224640012918683,0.23358160684562626,3.596425557361726e-08,2.1227693919586823,-0.3113676477535631,0.1794759677036859,-0.5006894461845297,0.2868712852877715,-0.002980732101773343,0.028937952156495486,-0.2693023681640625,0.3114166259765625,0.14096468042999447,4.4925849734039165,-7.26470947265625,13.00811767578125,32.557149321266984,0.029864253393665517,32.5,32.61,0.9035782292092333,0.018663526804156054,0.8157999515533447,1.0299999713897705,0.06306878772476887,0.05033437408725125,-0.12239998579025267,0.2184000015258789,0.04580996305955355,0.033927233619405715,-0.09140002727508544,0.25199997425079346,32.206907662644205,0.06297726329573168,32.007781982421875,32.471923828125,0.16284987277353688,-0.00032757068051186795,3,1
72,0.022987136612557614,0.006192294457372404,0.0013761070489783493,0.05435622843464479,-0.02297467227849833,0.006238337708564736,-0.054356202701489366,0.00963274478254242,-1.5807796751523213e-05,4.292308215279541e-06,-3.739995914082785e-05,6.627840860399872e-06,-1.5807796751523213e-05,4.292308215279541e-06,-3.739995914082785e-05,6.627840860399872e-06,-0.00013005371783983899,19.79537218087914,-166.38,177.78,0.0006155278909269255,0.3140335330939375,-0.58831787109375,1.4994964599609375,3.20096769607938,0.518115248396818,2.2447313650394185,4.352465943901031,0.41489526017058936,0.2546662662054366,0.014202949395271615,1.097673392078588,0.3166919027269223,0.6919815123898186,4.3973109598027804e-08,4.152810284469633,0.7819332221472636,0.25485432582289663,0.30361648722302703,1.1447886613343323,-0.0032974213974981985,0.025126162139281767,-0.3900604248046875,0.3086700439453125,-0.0452476109384492,3.999537378984459,-8.35418701171875,9.96856689453125,32.49276018099546,0.023954735746259486,32.45,32.55,0.9061414280871845,0.015057080561468626,0.8353999853134155,1.0025999546051023,0.049941655192549235,0.05046749827241437,-0.17580002546310425,0.187999963760376,0.023102884967908188,0.0262611116628158,-0.07599997520446777,0.15600001811981198,33.54946067840825,0.7061235116469563,32.3228759765625,34.52197265625,0.13797003109980208,-0.0002719823896294457,3,1
73,0.02972951631378772,0.00953062619127022,0.008256642293870095,0.07912615531625508,-0.029729502239333436,0.009530621679311,-0.07912611785659844,-0.008256638385036359,-2.0455479113108592e-05,6.5575747325549175e-06,-5.444297849614181e-05,-5.6810064517713185e-06,-2.0455479113108592e-05,6.5575747325549175e-06,-5.444297849614181e-05,-5.6810064517713185e-06,-0.020008484162895614,20.300645849759267,-112.45,123.64,-0.0005249319265128199,0.330310034757508,-0.72802734375,1.49945068359375,3.9732825628210815,0.3497125190010301,3.4017556357230787,5.064170234649241,0.32472993946342643,0.2046286069325473,0.04125372306682961,1.0761016693472605,0.2461322458653441,0.6178007282300648,4.784029883353469e-08,4.356879211859871,1.3417079434961583,0.16852760433451716,1.0664012193930157,1.5845678424803948,-0.0032196932404759595,0.04709536039257675,-0.5146636962890625,0.5773773193359375,0.1305425396658306,5.379255104667248,-9.35211181640625,15.86761474609375,32.42805429864253,0.02631718709750976,32.39,32.5,0.9063213858136654,0.02530896446101464,0.788599967956543,1.0869998931884766,0.04667081277130401,0.0528203979047179,-0.19919997453689567,0.2269999980926513,0.03484729463098523,0.03030125431530536,-0.10259997844696044,0.19179999828338626,33.91788883157459,0.1990899179992668,33.520263671875,34.4576416015625,0.1900452488687783,-0.0002982311805841299,3,1
74,0.02839611286737215,0.008477889195884488,0.0006880535244891746,0.05848454958157984,-0.02839532152343965,0.008480490271937091,-0.05848452189400755,0.00068805319875303,-1.953749180382334e-05,5.835028458600286e-06,-4.024046236671351e-05,4.734172043142766e-07,-1.953749180382334e-05,5.835028458600286e-06,-4.024046236671351e-05,4.734172043142766e-07,0.04351993214588647,17.266983253610814,-88.25,66.5,9.401171718483415e-05,0.3143964134254104,-0.5651092529296875,1.4994964599609375,4.377113191725249,0.4368878945671836,3.7831813832691004,5.515129315748823,0.4402799603651718,0.2974141426201306,0.06033534850900426,1.2429051364288548,0.33541726151693074,0.6705265851383089,3.161722261779687e-08,4.3226477143318425,1.471648805821614,0.12173102319582002,1.2831219224131356,1.8386315042525307,-0.003318720353992041,0.04979358146412023,-0.6101531982421875,1.04718017578125,0.2474756352276013,5.370976599757304,-14.019775390625,15.185546875,32.352262443438924,0.02041080122629275,32.31,32.39,0.9085773138937814,0.021152006687885708,0.7425999641418457,1.100600004196167,0.02788522377919909,0.049129534904410896,-0.17339998483657834,0.5125999450683594,0.029417588343825907,0.03758467664588285,-0.4495999813079834,0.871399998664856,33.467630078092185,0.09605599092767143,33.247039794921875,33.750457763671875,0.10178117048346057,-0.00020102949514713483,3,1
75,0.022724446494327904,0.005132218495758862,0.013761070489783492,0.05848454958157984,-0.022724435736191758,0.005132216066080112,-0.05848452189400755,-0.0137610639750606,-1.5635620698144533e-05,3.5312376809580977e-06,-4.024046236671351e-05,-9.468344086285533e-06,-1.5635620698144533e-05,3.5312376809580977e-06,-4.024046236671351e-05,-9.468344086285533e-06,0.015340684195646026,10.59662618029894,-36.45,114.97,-0.0020429165283682767,0.29892426079194884,-1.5,1.49945068359375,4.745646141010738,0.2484955169599763,4.3695337667809335,5.546436815076558,0.19490383765013344,0.14513145934270938,0.01182240230341843,0.6730641783010247,0.14692409433290796,0.4067556893411575,4.723874091894231e-08,3.8118850070063752,1.940850303623932,0.04874714594278917,1.8452564252960144,2.016199009264104,-0.006534906568183068,0.07382413008745578,-1.5,0.4821624755859375,-0.2608712142803913,5.610438030701183,-50.0,13.7420654296875,32.282217194570215,0.012800872188296907,32.27,32.33,0.8923214249749697,0.3477631773742493,-6.599999904632568,1.0394001007080078,0.02322455882261882,0.30916758862786325,-6.599999904632568,0.1878000497817993,-0.002528890828696294,0.30779008190529045,-6.599999904632568,0.19459998607635492,32.73760759442191,14.185686065209111,-273.14999389648443,33.7913818359375,0.18320610687022895,-3.966780437368407e-05,3,1
76,0.021866022068814474,0.003248581967477009,0.01513717753876184,0.05298012138566645,-0.021866011717070432,0.003248580429543511,-0.05298009630398332,-0.01513717037256666,-1.5044979305901688e-05,2.2351961559539106e-06,-3.64531247321993e-05,-1.0415178494914083e-05,-1.5044979305901688e-05,2.2351961559539106e-06,-3.64531247321993e-05,-1.0415178494914083e-05,-0.04477806050325149,7.693231908896607,-60.68,32.68,0.0010927776407275939,0.31579980193000706,-0.5738067626953125,1.4993133544921875,3.872189232220412,0.3121257218913792,3.3933758837443344,4.4298018828006125,0.025972506624341682,0.024792219083438403,0.0007246031684395253,0.1120847655105271,0.01874446032925092,0.06833957311654762,5.715306716780332e-08,0.6871531650091771,1.5789729345120749,0.18467287714520844,1.2872867209110672,1.8738594044614325,-0.003363255396363605,0.021181313482734655,-0.1128387451171875,0.1855316162109375,0.06306391567987167,3.37997396486198,-6.26373291015625,8.32366943359375,32.18891402714922,0.03959862917069773,32.13,32.27,0.9084993073919568,0.01090293258406735,0.8317999839782715,0.9833999872207642,0.03901818298360405,0.03114585939614149,-0.1462000012397766,0.1629999876022339,0.0152866401802161,0.02909087664214005,-0.08600002527236937,0.1388000249862671,32.52438540828966,0.22711086892773896,32.15325927734375,33.073944091796875,0.05880689850155499,-0.0005544376132611515,3,1
77,0.02120512468459633,0.0006647124057594622,0.018577445161207715,0.02476992688161029,-0.02120511464573271,0.0006647120910733952,-0.024769915155109082,-0.018577436366331808,-1.4590246961921093e-05,4.573572805128586e-07,-1.7043019355313955e-05,-1.2782264516485464e-05,-1.4590246961921093e-05,4.573572805128586e-07,-1.7043019355313955e-05,-1.2782264516485464e-05,0.0671359909527846,7.814785542868459,-48.25,29.92,0.0011393847133686571,0.33362663260689074,-0.576141357421875,1.4993133544921875,2.9613824438083807,0.21388513897000525,2.6284313116069784,3.4030724469201625,0.004866016538361044,0.005127577205433078,0.0001241506969582096,0.03384773834525038,0.0025568808412921593,0.010080069205170844,9.871017109253089e-08,0.06629506876883445,1.046420341501739,0.12764549536748362,0.8485510180541467,1.2854101559011553,-0.0033615667686111342,0.024566348311606426,-0.12762451171875,0.110870361328125,0.12383163684083295,4.271405142886258,-9.65728759765625,16.90216064453125,32.11054298642534,0.0255203619909498,32.07,32.15,0.9103681004758633,0.009742984268514169,0.8425999879837036,0.996999979019165,0.026545455662926355,0.010229814641933288,-0.05800002813339234,0.08879995346069336,0.019384541080479,0.017956547336468898,-0.0878000259399414,0.09459996223449707,32.016162930298165,0.08062395841388169,31.8048095703125,32.31689453125,0.06106870229007633,-0.00034744905333140185,3,1
78,0.020834136257355758,0.002902084520506429,0.008256642293870095,0.06742924539993912,-0.02083412639412439,0.0029020831466105533,-0.06742921347779694,-0.008256638385036359,-1.4334987308702413e-05,1.9967875920726767e-06,-4.639488602279911e-05,-5.6810064517713185e-06,-1.4334987308702413e-05,1.9967875920726767e-06,-4.639488602279911e-05,-5.6810064517713185e-06,-0.07999999999999995,9.4847300697139,-39.37,72.95,0.000545603081872108,0.32032146486176555,-0.5762786865234375,1.4999542236328125,2.4346675306776477,0.11059565521625477,2.2741939618317852,2.6444982525366783,0.011083701741890571,0.013619695202134395,3.160610125269254e-05,0.06468615638352837,0.009032685214519177,0.03498077322408052,8.4015842283236e-08,0.34387531690345097,0.7202198494360001,0.06412229001720697,0.6180246450084953,0.8470163107074804,-0.0033042871425716623,0.028043456836194986,-0.2352447509765625,0.2516326904296875,0.10966254715440736,4.070792845898484,-8.8043212890625,15.17791748046875,32.025113122171945,0.03128631261782658,31.97,32.09,0.909238170922918,0.015871642085354583,0.7458000183105469,1.0766000747680664,0.03432080481848935,0.02730712777019368,-0.20459997653961184,0.24339997768402105,0.02046585618284764,0.024614215798397985,-0.07819998264312744,0.3425999879837036,31.848499132033506,0.03617951979381178,31.73675537109375,32.05526733398437,0.16511167656205822,-0.00043727973139738233,3,1
79,0.020331047639345644,0.0007433899047873692,0.018577445161207715,0.024081873357121114,-0.02033103801428466,0.0007433895528540254,-0.02408186195635605,-0.018577436366331808,-1.3988835739698389e-05,5.114915597608149e-07,-1.656960215099968e-05,-1.2782264516485464e-05,-1.3988835739698389e-05,5.114915597608149e-07,-1.656960215099968e-05,-1.2782264516485464e-05,-0.0024151583710407282,5.5340543418785915,-25.16,23.94,0.001770992212491518,0.3073350144790773,-0.4925079345703125,1.49945068359375,2.081780205124053,0.0965374200106566,1.9310690674014963,2.2752490992772825,0.002586934282228376,0.002567601093741383,2.860535346249923e-05,0.016310882608321968,0.0016220343371478301,0.005953821224875086,1.0922772217258904e-07,0.043496079277421364,0.5141875079782475,0.057986223535138874,0.4218102929894443,0.6171274835427157,-0.0031964033229631155,0.028989132783143762,-0.1887359619140625,0.1340789794921875,-0.08559480538675762,3.339419608520686,-6.43463134765625,9.88006591796875,31.968642533936638,0.018445561359054702,31.93,32.0,0.9104017786266608,0.007734541771988305,0.8622000217437744,0.9637999534606934,0.02735991814162082,0.015642059168306164,-0.11580002307891844,0.06219995021820069,0.009197378492916186,0.01819443897713555,-0.09939998388290404,0.10020005702972412,31.802870817013112,0.01917104543362456,31.67172241210937,31.987030029296875,0.047511312217194575,-0.0001790832379067664,3,1
80,0.02011233379276045,0.0022565186175358127,0.00894469581835927,0.04747569318975305,-0.02011232427124224,0.0022565175492619397,-0.04747567071395907,-0.008944691583789391,-1.3838349049186502e-05,1.5526041178119973e-06,-3.2665787097685084e-05,-6.1544236560855945e-06,-1.3838349049186502e-05,1.5526041178119973e-06,-3.2665787097685084e-05,-6.1544236560855945e-06,-0.05553293751767036,9.94630403650249,-50.09,83.78,-0.00012898181342940556,0.30816392248935776,-0.52239990234375,1.4994049072265625,1.7817672487907308,0.08508698963858623,1.6472339137489689,1.933037210239965,0.00221530286770643,0.0019622596167767964,1.4448164094370815e-05,0.007312823898751486,0.001583518462621722,0.007013418531000207,9.142895889338587e-08,0.05687025141027498,0.3322166721298578,0.05143249824970901,0.2506340018063034,0.4213051832786668,-0.0030940334622609235,0.035720807395221696,-0.3181915283203125,0.1928558349609375,0.045484003045913685,4.392631301715387,-10.44464111328125,12.85552978515625,31.93425339366517,0.017797479352100774,31.89,31.97,0.9086381759247628,0.015347287759731144,0.8114000558853149,1.0685999393463137,0.03149859413077796,0.02841698506212758,-0.12540000677108765,0.14680004119873047,0.04043750364917744,0.02753785798346798,-0.04900002479553224,0.1809999942779541,31.864114994273514,0.02664629934702643,31.707183837890625,32.07159423828125,0.07463952502120441,-0.00017232370173546276,3,1
81,0.025234985683513168,0.014417170151046854,0.0,0.0516040143366881,-0.024785871139921586,0.015176267317586003,-0.05160398990647725,0.00756858518628333,-1.7053997921703938e-05,1.0442079272995919e-05,-3.550629032357074e-05,5.207589247457042e-06,-1.7053997921703938e-05,1.0442079272995919e-05,-3.550629032357074e-05,5.207589247457042e-06,-0.07077184054283303,24.17147460694661,-228.02,115.28,0.0010473326090486377,0.2860180620023716,-0.5419921875,1.4999542236328125,0.4042162572486624,0.1057639613407826,0.3431961999604575,1.2742939023538609,0.20428100599766005,0.2739302907062671,4.729503350895609e-05,0.8972914134783604,0.15446625753575974,0.5527023229670001,1.5326065749832196e-08,6.932148691205608,-0.7070313749896417,0.2543438395110124,-1.2629672645905208,-0.511103072412717,-0.003761224842357507,0.011898052998327423,-0.22760009765625,0.217254638671875,0.017361901758277,2.1940341171967845,-8.03985595703125,5.60302734375,30.750000000000085,0.046135743056010696,30.69,30.85,0.9110161100754308,0.01493607461671019,0.7654000520706177,0.9914000034332277,-0.03849574556648762,0.01938453977146101,-0.11379998922348022,0.05739998817443848,0.01825696911588473,0.08814299220913491,-0.2251999974250793,0.33580005168914795,33.15656927016267,0.02515747723244713,33.0108642578125,33.33599853515625,0.09499575911789652,0.0006760870290281925,3,2
82,0.031750422418075464,0.004031824751394267,0.0,0.05022790728770975,-0.031711512350215645,0.004327117878003895,-0.050227883508971186,0.00963274478254242,-2.181920750986321e-05,2.977287297341954e-06,-3.4559455914942184e-05,6.627840860399872e-06,-2.181920750986321e-05,2.977287297341954e-06,-3.4559455914942184e-05,6.627840860399872e-06,-0.004201300537178434,20.638606451756328,-136.42,140.49,0.0015652277590187886,0.27126791573178644,-0.5929412841796875,1.4993133544921875,0.3947300833801491,0.010141422246161404,0.3772111011051879,0.41771604473788265,0.0017168119111589538,0.002862155761516296,2.579159464598853e-07,0.013355103936184855,0.0012840435484201805,0.005708484221626101,8.609241324225927e-08,0.04979486605924965,-0.5103623955872395,0.005300005880989874,-0.5176705750219632,-0.5022014377487188,-0.003911236993850615,0.014161067715697313,-0.2319488525390625,0.2659149169921875,0.05783981971713111,2.5834124941389,-7.21435546875,6.964111328125,30.84375565610861,0.01518852946418738,30.81,30.89,0.9119890445625508,0.013850644436034416,0.7721999883651733,0.9960000514984132,-0.02841991042692676,0.02398162830272521,-0.13220000267028809,0.08399999141693115,0.028451411007121463,0.06346084334376298,-0.07400000095367433,0.3766000270843506,33.12495846078285,0.019548968569975903,33.0018310546875,33.2696533203125,0.10178117048346057,3.1929914282855234e-05,3,2
83,0.016422997021178377,0.012840077054480441,0.0,0.0460995861407747,-0.01217247056029262,0.016923739507102114,-0.046099564316453005,0.014449117173813631,-8.37530730573643e-06,1.1644433102724715e-05,-3.171895268905653e-05,9.941761290599808e-06,-8.37530730573643e-06,1.1644433102724715e-05,-3.171895268905653e-05,9.941761290599808e-06,-0.046446140797286255,20.635946673626663,-102.67,84.61,-0.00036785341494949465,0.2699987790420115,-0.5356292724609375,1.4992218017578125,0.387967599798007,0.02003422559258956,0.3612697730392638,0.4614072197693202,0.005936151148991904,0.01064589423954484,2.406093451666963e-07,0.03559483416482194,0.005468062742838631,0.0262761140992287,4.0166874548663856e-08,0.3140468634712109,-0.5186520334213905,0.00617237447958431,-0.5270602669329063,-0.5099120295263199,-0.003889003197886239,0.010632130030270649,-0.124420166015625,0.14776611328125,0.059357415235667524,2.211797603728209,-8.15582275390625,7.39898681640625,30.84954751131226,0.01296615000077723,30.83,30.87,0.9105350999788516,0.014828822887318481,0.7802000045776367,1.003000020980835,-0.025887711116723024,0.017781496262714358,-0.11059999465942384,0.0690000057220459,0.058838749488733036,0.06201413946049818,-0.0934000015258789,0.3545999526977539,33.14207197687715,0.03699132502155957,33.03338623046875,33.32391357421875,0.09047215154085382,-8.814079402315352e-05,3,2
84,0.0043602667920683395,0.004572854530104837,0.0,0.032338515650991204,0.0005409468021870559,0.0062952572471944145,-0.032338500341392414,0.011696904378801509,3.7220017760003646e-07,4.331471885905267e-06,-2.2250608602771e-05,8.048092473342704e-06,3.7220017760003646e-07,4.331471885905267e-06,-2.2250608602771e-05,8.048092473342704e-06,0.042726244343891835,32.137820446187604,-217.01,325.49,0.0013265372339539307,0.271974224420668,-0.45684814453125,1.4992218017578125,0.4026603358065448,0.009980927633548369,0.3602167067067357,0.4232634753041971,0.00592134686126375,0.008832319132455822,5.2133066117069575e-06,0.02714019117233768,0.003653228043302745,0.01651020216385159,3.7922815609992007e-08,0.19420217163487768,-0.5096639879856333,0.00830649485715563,-0.5262873503489116,-0.5012861847338639,-0.0038393077576701243,0.009139398561909802,-0.0713653564453125,0.0666046142578125,0.09172672046406473,2.210117032989734,-5.97076416015625,5.54046630859375,30.879954751131248,0.018894748667302192,30.83,30.91,0.9134413135133388,0.01249580266961867,0.7783999443054199,1.0494000911712646,-0.032660002823684565,0.011867159009862434,-0.08179998397827147,0.023399949073791504,0.006391768901095736,0.05752745677201852,-0.1218000054359436,0.2295999526977539,33.18298667857424,0.019462676958518856,33.036376953125,33.3299560546875,0.09728506787330317,0.00011304434833846953,3,2
85,0.035725108097416115,0.007318612692710988,0.0,0.06123676367953655,-0.03571731217721345,0.00735647959361562,-0.061236734689019676,0.0034402659937651497,-2.457541089439221e-05,5.061649315948614e-06,-4.2134131183970615e-05,2.3670860215713828e-06,-2.457541089439221e-05,5.061649315948614e-06,-4.2134131183970615e-05,2.3670860215713828e-06,0.022835736499858848,18.351388448152896,-158.2,128.93,0.0011423667329455492,0.2749402427645361,-0.385528564453125,1.4994049072265625,0.3791372548627005,0.008939748883140685,0.3636449608395909,0.3989352016176421,8.675089184791372e-05,0.00019512825417306888,2.696712356551033e-07,0.0008933359204154115,6.659787137730953e-05,0.0007030824024142841,1.283634037277739e-07,0.008583237983951622,-0.5180971887376095,0.005199306671502555,-0.5261031859092699,-0.508435796004166,-0.0038355067133496725,0.011133403055133266,-0.22503662109375,0.1767425537109375,0.08665500388817486,3.7074329738275487,-15.37322998046875,10.50872802734375,30.930271493212643,0.026120475351951725,30.87,30.99,0.9126277533845658,0.007982343063366601,0.8489999771118164,0.9517999887466432,-0.004387649049089336,0.017625746933823086,-0.08380001783370973,0.09200000762939453,-0.04544118533656117,0.02680064176813252,-0.11580002307891844,0.10020005702972412,33.160667865947644,0.02535779857222741,32.98980712890625,33.326934814453125,0.07011591744416171,0.000340689517160098,3,2
86,0.030681038297597267,0.0013218513723209846,0.027522140979566984,0.042659318518328826,-0.030681023772676293,0.0013218507465342082,-0.04265929832268786,-0.0275221279501212,-2.1110176547807704e-05,9.095036344269385e-07,-2.935186666748515e-05,-1.8936688172571066e-05,-2.1110176547807704e-05,9.095036344269385e-07,-2.935186666748515e-05,-1.8936688172571066e-05,0.03643765903307862,15.791187567189546,-135.16,122.76,0.0012104573632923574,0.26913982230851113,-0.503265380859375,1.49945068359375,0.3684903690589881,0.0036858810064686006,0.36235793125683896,0.3754892574702981,0.00012657416832669694,0.00038118789941142496,3.3362117040277444e-07,0.0019672048155025927,9.73631716143896e-05,0.0014370503531939119,1.5744924727236344e-07,0.02141225987832425,-0.5246909017836315,0.002091924369783309,-0.5275111101289126,-0.5209649103393595,-0.003745739640697503,0.010515088971226315,-0.1539459228515625,0.1607208251953125,-0.001198053976308842,2.678497735086056,-9.24530029296875,7.9498291015625,30.96321266968325,0.01342298368705068,30.93,30.99,0.9008244494872408,0.01706748214907401,0.732200026512146,0.9737999439239502,0.07094277745965423,0.014712527152013991,-0.02740001678466797,0.20739996433258054,0.028349617096485587,0.08947173642847966,-0.10159999132156372,0.4365999698638916,33.244148358528555,0.07109159047422504,33.04840087890625,33.46127319335937,0.13570822731128074,2.339155280331701e-05,3,2
