,EDA_tonic_mean,EDA_smna_mean,EDA_tonic_min,EDA_phasic_mean,TEMP_std,BVP_peak_freq,smoker_YES,ACC_y_min,ACC_x_mean,weight,gender_ female,c_Temp_max,ACC_x_max,TEMP_mean,c_ACC_y_std,net_acc_max,Resp_std
0,0.8029562945462451,1.3765354163282144,-1.213172941862477,1.9673620869611976,0.02498606314912744,0.08142493638676844,0,-2.603794623728521e-05,0.023430779941925082,80,0,29.42620849609375,0.0873827562416348,35.80728506787336,0.04357444788320166,0.08738279761012517,2.8902671464681617
1,1.356137547043924,0.10795162612076556,0.9124406813491884,0.16526729419171174,0.024640657773682996,0.14701724625388746,0,1.8936688172571063e-06,0.027639979911241515,80,0,29.207275390625,0.054356202701489366,35.70683257918552,0.00800159512055074,0.054356228434644785,1.5966038535319098
2,0.5946547839738721,0.03298663884479746,0.1122697804933866,0.03413642876413287,0.037081551492185484,0.08821034775233247,0,-1.8936688172571063e-06,0.028377524404226744,80,0,28.988800048828125,0.06605310708029087,35.77542986425342,0.006401265126041071,0.06605313835096077,1.5911269613990828
3,0.11999755777187987,0.16700313466660455,-0.20270020156079727,0.223354574277362,0.025266378398122503,0.11761379700310998,0,-2.1303774194142445e-05,0.03295965407706733,80,0,29.02328491210937,0.07499779866408028,35.83072398190053,0.053832599119041896,0.07499783416932004,1.8792713208544731
4,0.19159264592704034,0.001633651879818525,0.008597810783057658,0.004533319621371927,0.02090889465952162,0.15154085383093016,0,1.8936688172571066e-05,0.037020998128381916,80,0,28.882598876953125,0.04334735152144089,35.798868778280614,0.005641592746869552,0.043347372042818,1.4149755753488782
5,-0.11600037898262534,0.026361025482252828,-0.16984153391509102,0.034104673671894334,0.02250884499542674,0.07918552036199096,0,-6.1544236560855945e-06,0.03243190122810098,80,0,28.786529541015625,0.07018142627280906,35.88076923076926,0.007500687115232002,0.07018145949789581,1.471546205346255
6,-0.319819917051,0.024416935847370855,-0.41633987683323137,0.03214167647299285,0.03178429479395135,0.06333050607859768,0,-4.7341720431427655e-06,0.03517822696891961,80,0,28.69198608398437,0.061236734689019676,35.81959276018101,0.005645853803270183,0.06123676367953655,1.4793305608975458
7,-0.5116929199960332,0.007727708506293595,-0.588027101775721,0.01007472699286538,0.015449954410814613,0.07011591744416171,0,-4.7341720431427655e-06,0.0377067163049664,80,0,28.686279296875,0.054356202701489366,35.76411764705889,0.0041297080998344326,0.054356228434644785,1.4226620174355955
8,-0.6494600762704646,0.008078716375143569,-0.6939015622907352,0.007305087509962544,0.042036369569422936,0.06106870229007633,0,-3.313920430199936e-06,0.03688066272411563,80,0,28.7020263671875,0.0550442559002424,35.86131221719456,0.004235098561354385,0.05504428195913397,1.4316740458277155
9,-0.7255101162428922,0.00418967876991109,-0.7552844847638849,0.007872347979405859,0.014660633484162112,0.14475544246536612,0,-2.3670860215713828e-06,0.0361430297933209,80,0,28.6705322265625,0.05710841549650149,35.90095022624439,0.006913886886012743,0.0571084425326015,1.4058823075183513
10,-0.7719458817240927,0.004333231657255531,-0.8093188566206965,0.006395849095354836,0.017200760971718482,0.14701724625388746,0,1.6096184946685408e-05,0.03638047255249581,80,0,28.56463623046875,0.04747567071395907,35.91343891402717,0.0061242006961167855,0.04747569318975305,1.402296036889707
11,-0.8340708643513551,0.002288516276687053,-0.8574454437995359,0.002982927150260899,0.01887501660170762,0.13574660633484165,0,1.2782264516485464e-05,0.03606986576539877,80,0,28.626190185546875,0.04885177711146513,35.889457013574656,0.005316776348454601,0.0488518002387314,1.3924767823678246
12,-0.8786939246064981,0.000635980856446733,-0.896103865852138,0.0008310382567447794,0.015927601809954305,0.14249363867684478,0,1.088859569922836e-05,0.037107783118948114,80,0,28.68194580078125,0.03990708552767574,35.904479638009065,0.003402242415189295,0.03990710442037213,1.3686069429325336
13,-0.8704460262749915,0.002824364841784468,-0.916387913427988,0.0036298502432282453,0.01820512195701101,0.14249363867684478,0,1.136201290354264e-05,0.03113197630378188,80,0,28.53887939453125,0.04403540472019392,35.928733031674206,0.006022282164514599,0.044035425567307176,1.5242296272585911
14,-0.8399177132681439,0.00020420733272380964,-0.8466121288686139,0.00030730686595324355,0.049298761937644514,0.14701724625388746,0,1.941010537688534e-05,0.029221634917855326,80,0,28.511749267578125,0.029586287546380288,35.815248868778355,0.003634185026882573,0.029586301553034506,1.3871383488971103
15,-0.8784201100198582,0.0046789743071864644,-0.89568975709501,0.006054419917588508,0.02830693136750336,0.14249363867684478,0,1.7043019355313955e-05,0.03203122955167161,80,0,28.55746459960937,0.03921903232892271,35.67738738738732,0.004380858212441753,0.03921905089588296,1.4270517741492004
16,-0.8956853936214221,0.011606812352319928,-0.8993460078060808,0.015076105833306756,0.020213840123243426,0.11987560079163133,0,1.4202516129428297e-05,0.038237155507398514,80,0,28.5074462890625,0.06054868149026664,35.6909502262444,0.008693146307574631,0.060548710155047376,2.542171820551455
17,-0.8975916609895966,0.00013061669755008536,-0.9107679709494568,0.00019589682827527945,0.020520748623175624,0.14475544246536612,0,2.651136344159949e-05,0.039780676658486884,80,0,28.6390380859375,0.0412831919251818,35.628054298642475,0.002875304792401678,0.04128321146935048,1.3827687247270977
18,-0.9105437712622548,0.01103077482118832,-0.9708473849845576,0.01434653963063104,0.04310110922218874,0.08823529411764706,0,-8.048092473342704e-06,0.03096667481785987,80,0,32.842803955078125,0.06054868149026664,35.674117647058765,0.008524340643637655,0.060548710155047376,1.7139848044313162
19,-0.8239393217879997,0.005352654686290549,-0.8633473747708964,0.006571792892262246,0.04028867394967242,0.14701724625388746,0,-4.7341720431427655e-06,0.0318987378331387,80,0,34.370391845703125,0.057796468695254524,35.63511312217191,0.011574468868989309,0.057796496057090675,1.6097531069608912
20,0.9016011354730398,0.07256982930747849,0.23176209760684816,0.13511772732251215,0.015538226991013046,0.1583262651964942,0,-1.5622767742371126e-05,0.012331641238058437,80,0,31.531494140625,0.04403540472019392,34.07217194570134,0.014052554262033314,0.044035425567307176,4.717099137245722
21,0.6483764606133908,0.040316415307892636,0.5778537435530255,0.052489506916771435,0.03576206779432607,0.1289228159457167,0,-4.7341720431427655e-06,0.011900714370970329,80,0,31.506378173828125,0.03646681953391059,33.98438914027149,0.012576219864539936,0.036466836797926255,5.3105527958932415
22,0.6053183766782091,0.02667171056939518,0.5653632175851345,0.03625866846165733,0.028664363737033807,0.14927905004240882,0,-6.627840860399872e-06,0.012322690319748858,80,0,31.46807861328125,0.03371460673889847,33.877963800905015,0.012356111923139193,0.03371462269996956,3.1436621917031835
23,0.5569836044768999,0.10929061402866304,0.43702849423824736,0.1424530484552324,0.029622219551496468,0.07690132880972575,0,-2.177719139845672e-05,0.015176454359606847,80,0,31.57574462890625,0.05710841549650149,33.77488687782806,0.021239392091418896,0.0571084425326015,3.2539810325135403
24,0.9334533390175288,0.07393629114088468,0.7536366978248341,0.09511807201676206,0.041378055609290254,0.09499575911789652,0,-1.9883522581199616e-05,0.0128091532713559,80,0,31.58016967773437,0.0873827562416348,33.630271493212675,0.019507643417655613,0.08738279761012517,3.619296339149689
25,1.3296179720623438,0.19345301964690226,0.994204400261122,0.24857082140454875,0.044840327635892865,0.12669683257918554,0,1.8936688172571063e-06,0.011065670052796305,80,0,31.2354736328125,0.04885177711146513,33.51045248868782,0.009547687435927269,0.0488518002387314,2.8363678595878383
26,1.7054245398209025,0.13551460569583088,1.52217621367091,0.17984003779846167,0.03337495950608292,0.08821034775233247,0,2.84050322588566e-06,0.010362026720169332,80,0,31.24871826171875,0.012384957577554541,33.38076923076924,0.006519180228411982,0.012384963440805143,2.6913802857054603
27,1.7429071992856755,0.11544064258255532,1.6024423520029083,0.13856281141234486,0.060425523018228414,0.1085665818490246,0,3.313920430199936e-06,0.011025974675944955,80,0,31.457733154296875,0.018577436366331808,33.25502262443437,0.020254531804086352,0.018577445161207715,2.2482627019514347
28,1.839090019699396,0.09243935646962848,1.7641211180785508,0.11686507301603953,0.06372743756339852,0.11309018942606727,0,2.84050322588566e-06,0.010680577070524588,80,0,31.4400634765625,0.015825223571319692,33.023348416289636,0.013025352628514343,0.015825231063251018,2.9724609995754685
29,2.017397504201295,0.09239112497539356,1.9136380148988643,0.12678553978776136,0.0537324172386864,0.09273395532937516,0,5.6810064517713185e-06,0.010655095321639852,80,0,31.331085205078125,0.0137610639750606,32.818597285067895,0.007430334750018289,0.013761070489783492,2.7502349930209093
30,2.1764925844845537,0.08941077877665103,2.1139953712525297,0.1237033379111768,0.04177928788543605,0.08821034775233247,0,6.1544236560855945e-06,0.0109092798861643,80,0,31.298736572265625,0.0137610639750606,32.64628959276018,0.005742665655162807,0.013761070489783492,2.2284760053318173
31,-0.6024188892572333,0.02079578526634598,-0.7154826415873601,0.0313252816710914,0.02567234357488226,0.11987560079163133,0,2.367086021571383e-05,0.04302083758832277,80,0,32.02410888671875,0.05366814950273634,34.386742081447956,0.004285266566623028,0.05366817491015562,1.8200230505707105
32,-0.6189101385068367,0.029011146221520533,-0.6815516783982889,0.03743305696147183,0.03469275356814778,0.13797003109980208,0,1.7989853763942512e-05,0.04260445632097853,80,0,32.406280517578125,0.0550442559002424,34.31135746606345,0.0043882558711586285,0.05504428195913397,2.3179873907017727
33,-0.5896602430338281,0.013280918446425692,-0.6195766326096941,0.01744534321708691,0.03196767731422908,0.13797003109980208,0,2.461769462434237e-05,0.04240088920279407,80,0,32.406280517578125,0.05229204310523028,34.213529411764725,0.0033322854855280127,0.052292067861177266,1.9627690206213488
34,-0.6667333010567618,0.008184304409753217,-0.7148496580614004,0.010927698454831351,0.02007632699045766,0.13570822731128074,0,2.603794623728521e-05,0.04164180416331152,80,0,32.31396484375,0.045411511117699976,34.143574660633405,0.003074505621201073,0.04541153261628554,2.0287220506293666
35,-0.6714816360437371,0.03665068641140791,-0.8159899684432836,0.04692342342240873,0.02424461244423196,0.15606446140797284,0,-1.088859569922836e-05,0.03192092054373278,80,0,32.61376953125,0.0667411602790439,34.082850678733024,0.02087658579662584,0.06674119187544994,2.141867099165577
36,-0.4799861347225782,0.02454544259779625,-0.5049513580687185,0.03241990538751058,0.039007779310115384,0.12895927601809956,0,3.313920430199936e-06,0.01818126093854333,80,0,32.839813232421875,0.031650447142639385,34.06547511312215,0.004205692447183909,0.031650462126502035,2.284200723256334
37,-0.3738730782114135,0.023797700127214456,-1.2129804224873473,0.07273083023010507,0.03243646466371496,0.1334464235227594,0,2.887844946317087e-05,0.042838316688879885,80,0,31.630340576171875,0.04403540472019392,34.035158371040694,0.004089770682834673,0.044035425567307176,1.093239221562009
38,-0.4559461403757605,0.0012213790571758145,-0.519506568745963,0.0016264039139024262,0.02240106933364976,0.13118461973423806,0,2.887844946317087e-05,0.04273747734640207,80,0,31.5875244140625,0.04334735152144089,34.00004524886868,0.003179972876163568,0.043347372042818,1.3458899561536506
39,-0.5622597589750665,0.00029400529068619236,-0.599654467501188,0.0003747508665414084,0.03883254649580824,0.13797003109980208,0,2.935186666748515e-05,0.04272000889904908,80,0,31.58163452148437,0.04334735152144089,34.13280542986426,0.0026965071637264732,0.043347372042818,1.2211432027988522
40,-0.6316999979913746,0.00020644248120388152,-0.6608976973731343,0.0002760711252435289,0.06409901152430643,0.13797003109980208,0,2.887844946317087e-05,0.04268146849359236,80,0,31.68499755859375,0.04334735152144089,34.283212669683344,0.002851298864202059,0.043347372042818,1.2876495903665717
41,-0.6801673607453299,0.00040098418772232446,-0.6961585574333122,0.000498939731499659,0.06022343959663416,0.13118461973423806,0,2.887844946317087e-05,0.04266280085594006,80,0,31.6170654296875,0.04334735152144089,34.51914027149323,0.0032366121981665685,0.043347372042818,1.2205635382931763
42,-0.7162725877237671,0.00018613447412916428,-0.7359651677395491,0.00023193138839461782,0.016819924207042522,0.15158371040723986,0,2.887844946317087e-05,0.04265735247088205,80,0,31.61557006835937,0.04334735152144089,34.61769230769228,0.003014558855424696,0.043347372042818,1.1675091729924385
43,-0.7453046230656759,0.00024308929829570743,-0.7519319399340987,0.0003480788203688784,0.037201505447153185,0.14927905004240882,0,2.887844946317087e-05,0.04265190826572053,80,0,31.52850341796875,0.04334735152144089,34.646108597285014,0.003463213489776483,0.043347372042818,1.1383114823304892
44,-0.2787497486102401,0.012822024457573505,-0.7528341171337268,0.03915150478269243,0.2787030453400697,0.07690132880972575,0,2.1303774194142445e-05,0.03943035183510057,80,0,32.406280517578125,0.046787617515206034,33.77895927601814,0.02952973009608427,0.04678763966526387,1.610151972900197
45,-0.3980590087834422,0.0005007916980257523,-0.4594227239958994,0.0006707568610709065,0.02057007801589521,0.14249363867684478,0,2.603794623728521e-05,0.03917391408638117,80,0,32.41973876953125,0.04197124512393483,33.6406334841629,0.005647209849913994,0.04197126499383968,2.2711372669522243
46,-0.5069736652449411,0.0002810670111995496,-0.5491619062771991,0.00033033911527258875,0.014176695169892502,0.14475544246536612,0,2.651136344159949e-05,0.039140030745581485,80,0,32.3675537109375,0.03921903232892271,33.637239819004456,0.004461586276810044,0.03921905089588296,1.4375362620397811
47,-0.5804184370355394,0.0003688112108261549,-0.6134522085406917,0.000516023030741504,0.01875433243695769,0.1402318348883234,0,2.461769462434237e-05,0.03910273616926899,80,0,32.30502319335937,0.0412831919251818,33.66248868778285,0.0037546061294863853,0.04128321146935048,1.077101328668313
48,-0.6321761235298625,0.0004768960300067551,-0.6463685687186908,0.0006030226724355931,0.07950979498023526,0.13570822731128074,0,2.651136344159949e-05,0.03903456557767341,80,0,32.279693603515625,0.03921903232892271,33.815158371040724,0.003169227566639337,0.03921905089588296,0.9090342605188284
49,-0.6569093798976653,0.0008968844576197765,-0.6644925313357483,0.0011113529481918056,0.08359297131272418,0.13122171945701358,0,2.651136344159949e-05,0.03893338128373931,80,0,32.2454833984375,0.03921903232892271,34.13904977375565,0.003666457748151557,0.03921905089588296,1.1577228766082135
50,1.8755377465993779,0.13845950030125748,1.7233040186516009,0.18654441884600087,0.03793263542710612,0.09894880596321602,0,-3.244890971772956e-06,0.003596906095539883,80,0,31.994331553246113,0.012870146265225549,32.61315696285849,0.015394570847070358,0.022521765450622275,2.610682387496145
51,2.1764729223261785,0.08941114711009583,2.113970609593871,0.12370371883270707,0.0417807651424449,0.08821090681354574,0,6.1543651476513164e-06,0.010909248472137196,80,0,31.298740570151296,0.0137610639750606,32.646310887831845,0.00574287422991552,0.013761070489783492,2.228540488204772
52,1.776822378723802,0.09242280236065648,1.685519978892442,0.11777585011709282,0.06353243806509666,0.11280244386962267,0,1.6208882106760376e-06,0.009277431298660384,80,0,31.543355557486766,0.014906118810240855,33.003639467090096,0.012846522735374188,0.01696317082997327,3.0176486840193038
53,-0.5280674756354773,0.026091014367248706,-0.5660724024944147,0.034154947880599015,0.037514356877015397,0.13207788169576767,0,8.393233828987915e-06,0.026634083714863782,80,0,32.68976836118661,0.03974700111089556,34.15057454096902,0.004268877310758574,0.039747019927805244,2.295894226405564
54,-0.6305179234977301,0.006122443784083665,-0.6670854955334924,0.008173824990995905,0.018379978991580122,0.13570822731128074,0,1.1915663049058004e-05,0.023202249965115516,80,0,32.6064845791977,0.026816223449288013,33.3327040271743,0.006041755864335054,0.0447098233154652,2.1943899910590994
55,-0.510980443971539,0.02554175277715777,-0.544351352257343,0.03353835263897739,0.03804508576097564,0.1309695990865496,0,6.588159610417766e-06,0.023630139821321117,80,0,32.74309094781024,0.03686966717224778,34.12033211031724,0.00424642282542012,0.0368696846269784,2.291738617290269
56,-0.5391057526535572,0.026445839108377407,-0.5801042703083219,0.034553270375629774,0.03717150432322669,0.1327938358003468,0,9.559317538238745e-06,0.02857464106243829,80,0,32.65532179995535,0.041605768023310646,34.17011124774172,0.004283382979990017,0.041605787720192355,2.2985787631639467
57,-0.7452905829575445,0.00024308476920831943,-0.7519206892424267,0.00034806992112005643,0.03720482964186395,0.14927765238937568,0,2.887844946317087e-05,0.04265191191899429,80,0,31.528522758683575,0.04334735152144089,34.646063747895646,0.003463137864796385,0.043347372042818,1.1383299386493548
58,-0.463069656747505,0.0004525451563869936,-0.5141857300108474,0.0006103457064097477,0.023683781485147895,0.14376399018435007,0,2.6569739721964752e-05,0.039825057386438274,80,0,32.25288342187388,0.042228877084972784,33.82887657760246,0.00523832630269576,0.042228897076845004,2.0590518286929544
59,-0.46736386133367946,0.0011554444440091574,-0.5286919401198363,0.0015386805308119935,0.02510994568442442,0.1316254290263228,0,2.887844946317087e-05,0.04273383877219818,80,0,31.59385668568514,0.04334735152144089,34.01844101348573,0.003158620809098823,0.043347372042818,1.3421064133394818
60,2.4153965347010407,0.3939644525515886,1.4784613148806092,0.5872501778101934,0.03295944498653405,0.13570822731128074,0,-4.166071397965634e-05,-0.03418822706858229,69,0,33.203338623046875,-0.00756858518628333,32.612624434389126,0.018194284046712854,0.060548710155047376,5.26285536158664
61,2.2366879898703043,0.11857531558401785,1.8531672359223528,0.1404396519343593,0.034042549706451146,0.09047215154085382,0,-3.787337634514213e-05,-0.02862052378577899,69,0,32.328826904296875,-0.006880531987530299,32.584027149321216,0.011658785023531505,0.05504428195913397,2.360379327028374
62,1.6190943340762871,0.14091700037669572,1.4070258942709797,0.1969453428705857,0.020263613529963358,0.11082838563754592,0,-3.787337634514213e-05,-0.036381980395149865,69,0,32.065673828125,0.0034402659937651497,32.66312217194561,0.013213283868875715,0.05504428195913397,2.846542177082534
63,1.1705390668755953,0.00333224259856777,0.8947820127648441,0.003431357484475648,0.03775046709937542,0.10633484162895927,0,-3.124553548474225e-05,-0.037657291669084415,69,0,31.764862060546875,-0.03096239394388635,32.792895927601826,0.008023123351483539,0.04541153261628554,3.0804214603462583
64,0.7382498781578649,0.022483921963906545,0.604021419988384,0.029020674240851394,0.04196178188057178,0.1085665818490246,0,-3.692654193651357e-05,-0.035906342055446724,69,0,31.4400634765625,-0.01513717037256666,32.710542986425345,0.017284327872166962,0.05366817491015562,1.778171499242701
65,0.5503327116375198,0.014563439058351606,0.4637725064070022,0.0200284062629333,0.04668753634360276,0.12439920836867402,0,-3.739995914082785e-05,-0.02803855701954649,69,0,31.19580078125,0.015825223571319692,32.80484162895932,0.01833428873381136,0.054356228434644785,1.8611294919921009
66,0.4810859687380263,0.01263355503788607,0.3686143761339987,0.014803072066580672,0.01685931803164376,0.10178117048346057,0,-3.64531247321993e-05,-0.03510821590290781,69,0,31.05487060546875,-0.00481637239127121,32.83723981900453,0.01368445684660548,0.05298012138566645,2.8354383817223234
67,0.2931853969380812,0.01091044439163578,0.21210100747305946,0.013737577880158627,0.018677316758541725,0.10404297427198188,0,-3.077211828042797e-05,-0.03832705386085688,69,0,31.13409423828125,-0.01995354276383787,32.82882352941177,0.026497710915522263,0.04472347909179635,1.8464859348496327
68,0.08816320056982423,0.013673662252895343,0.025185260952042654,0.019586817949227314,0.01886535989087813,0.17189708792762226,0,-3.4559455914942184e-05,-0.04059825032936189,69,0,31.097381591796875,-0.020641595962590898,32.833257918552086,0.010970761394919851,0.05022790728770975,1.9496059609133989
69,-0.03788822685123516,0.01226139525532904,-0.09116395371209672,0.016240174948773403,0.11771578222490027,0.10407239819004524,0,-3.787337634514213e-05,-0.03981407381132845,69,0,31.07098388671875,-0.028898234347627262,32.9806787330316,0.008211841900660367,0.05504428195913397,1.6970464553207742
70,-0.1603179189085269,0.021789622237838896,-0.20407015364396985,0.02728728656004199,0.022761755205853967,0.14249363867684478,0,-5.207589247457043e-05,-0.033608752400628675,69,0,31.17523193359375,0.002064159596259089,33.26004524886886,0.028154948563505026,0.07568588769380921,3.2586416015818824
71,-0.2269425288769671,0.012843786644023254,-0.2619809224981845,0.01773693789152848,0.04623017543783424,0.11082838563754592,0,-4.024046236671351e-05,-0.03278384851130257,69,0,31.37969970703125,0.00756858518628333,33.286756756756795,0.010212351573063274,0.05848454958157984,2.074102070253307
72,-0.29804986133480554,1.939425797249057e-05,-0.3308392982913313,2.5209797558359235e-05,0.01654401612685065,0.11082838563754592,0,-3.3612621506313634e-05,-0.04219034803733827,69,0,31.52410888671875,-0.037154872732663616,33.436696832579194,0.005633684753720872,0.0488518002387314,3.2838746298187167
73,-0.3655703220032994,0.0009913947258946524,-0.39600382332866696,0.0012879107279056962,0.06847647523921056,0.10630477806050324,0,-3.408603871062791e-05,-0.035195340785057316,69,0,31.4813232421875,-0.02821018114887423,33.35452488687788,0.014576064383648672,0.04953985376322058,2.64316785059411
74,-0.3957284393572687,0.0036272024173208788,-0.4136683464809801,0.004716280841325289,0.025414159173519774,0.10630477806050324,0,-3.313920430199936e-05,0.0011472742250701036,69,0,31.634765625,0.03509071313640453,33.20891402714934,0.028742357291060026,0.04816374671424223,1.7301718705781792
75,-0.4183381622652384,0.003504331910148089,-0.4618220352209033,0.003819797582898429,0.011433915512505515,0.12666101215719536,0,-3.9293627958084963e-05,0.003086321160036803,69,0,31.714599609375,0.02821018114887423,33.164615384615324,0.011776620285636231,0.0571084425326015,2.9036287524877764
76,-0.465012578181488,0.00010487888622200624,-0.4876065409052998,0.0008721783294287962,0.012201095476245094,0.11085972850678734,0,-2.698478064591377e-05,-0.03623565233930577,69,0,31.686492919921875,-0.0344026599376515,33.17004524886872,0.003063384294993673,0.03921905089588296,1.3158096871979843
77,-0.4981449752054215,9.211130152513628e-05,-0.5031184529027248,0.00011970706759657185,0.011862800232682168,0.1085665818490246,0,-2.651136344159949e-05,-0.03445091706245172,69,0,31.7811279296875,-0.02821018114887423,33.140950226244364,0.004755600042502411,0.03853099737139378,2.2620358359037414
78,-0.5125740827107079,2.7541933546610014e-07,-0.5205494201495043,3.9813326703546704e-07,0.013150538850491335,0.11082838563754592,0,-2.0356939785513888e-05,-0.029165832199939994,69,0,31.79296875,-0.028898234347627262,33.13678733031672,0.0030586706096624155,0.029586301553034506,1.4293688869754957
79,-0.5238593106004253,0.0002733179229667894,-0.5266444632024962,0.00029802044687971294,0.050226244343891766,0.1085665818490246,0,-3.171895268905653e-05,-0.03468986766428071,69,0,31.93511962890625,-0.02821018114887423,33.18475113122175,0.02172608441808044,0.0460995861407747,2.7670045567853845
80,-0.5309078790331615,0.0042557959721365455,-0.5443012779534908,0.00513412038448734,0.03920463935367799,0.09725756290641786,0,-4.355438279691344e-05,-0.030082868927380726,69,0,32.248443603515625,-0.00275221279501212,32.672624434389036,0.048338527582218974,0.06330092425300407,5.893659220782398
81,-0.3113676477535631,0.07224640012918683,-0.5006894461845297,0.0750936755675375,0.029864253393665517,0.16284987277353688,0,-4.0713879571027776e-05,-0.027020770927400503,69,0,32.471923828125,-0.008256638385036359,32.557149321266984,0.05033437408725125,0.05917260310606901,4.4925849734039165
82,0.7819332221472636,0.3166919027269223,0.30361648722302703,0.41489526017058936,0.023954735746259486,0.13797003109980208,0,-3.739995914082785e-05,-0.02297467227849833,69,0,34.52197265625,0.00963274478254242,32.49276018099546,0.05046749827241437,0.054356228434644785,3.999537378984459
83,1.3417079434961583,0.2461322458653441,1.0664012193930157,0.32472993946342643,0.02631718709750976,0.1900452488687783,0,-5.444297849614181e-05,-0.029729502239333436,69,0,34.4576416015625,-0.008256638385036359,32.42805429864253,0.0528203979047179,0.07912615531625508,5.379255104667248
84,1.471648805821614,0.33541726151693074,1.2831219224131356,0.4402799603651718,0.02041080122629275,0.10178117048346057,0,-4.024046236671351e-05,-0.02839532152343965,69,0,33.750457763671875,0.00068805319875303,32.352262443438924,0.049129534904410896,0.05848454958157984,5.370976599757304
85,1.940850303623932,0.14692409433290796,1.8452564252960144,0.19490383765013344,0.012800872188296907,0.18320610687022892,0,-4.024046236671351e-05,-0.022724435736191758,69,0,33.7913818359375,-0.0137610639750606,32.282217194570215,0.30916758862786325,0.05848454958157984,5.610438030701183
86,1.5789729345120749,0.01874446032925092,1.2872867209110672,0.025972506624341682,0.03959862917069773,0.05880689850155499,0,-3.64531247321993e-05,-0.021866011717070432,69,0,33.073944091796875,-0.01513717037256666,32.18891402714922,0.03114585939614149,0.05298012138566645,3.37997396486198
87,1.046420341501739,0.0025568808412921593,0.8485510180541467,0.004866016538361044,0.0255203619909498,0.06106870229007633,0,-1.7043019355313955e-05,-0.02120511464573271,69,0,32.31689453125,-0.018577436366331808,32.11054298642534,0.010229814641933288,0.02476992688161029,4.271405142886258
88,0.7202198494360001,0.009032685214519177,0.6180246450084953,0.011083701741890571,0.03128631261782658,0.16511167656205822,0,-4.639488602279911e-05,-0.02083412639412439,69,0,32.05526733398437,-0.008256638385036359,32.025113122171945,0.02730712777019368,0.06742924539993912,4.070792845898484
89,0.5141875079782475,0.0016220343371478301,0.4218102929894443,0.002586934282228376,0.018445561359054702,0.047511312217194575,0,-1.656960215099968e-05,-0.02033103801428466,69,0,31.987030029296875,-0.018577436366331808,31.968642533936638,0.015642059168306164,0.024081873357121114,3.339419608520686
90,0.3322166721298578,0.001583518462621722,0.2506340018063034,0.00221530286770643,0.017797479352100774,0.07463952502120441,0,-3.2665787097685084e-05,-0.02011232427124224,69,0,32.07159423828125,-0.008944691583789391,31.93425339366517,0.02841698506212758,0.04747569318975305,4.392631301715387
91,-0.7070313749896417,0.15446625753575974,-1.2629672645905208,0.20428100599766005,0.046135743056010696,0.09499575911789652,0,-3.550629032357074e-05,-0.024785871139921586,69,0,33.33599853515625,0.00756858518628333,30.750000000000085,0.01938453977146101,0.0516040143366881,2.1940341171967845
92,-0.5103623955872395,0.0012840435484201805,-0.5176705750219632,0.0017168119111589538,0.01518852946418738,0.10178117048346057,0,-3.4559455914942184e-05,-0.031711512350215645,69,0,33.2696533203125,0.00963274478254242,30.84375565610861,0.02398162830272521,0.05022790728770975,2.5834124941389
93,-0.5186520334213905,0.005468062742838631,-0.5270602669329063,0.005936151148991904,0.01296615000077723,0.09047215154085382,0,-3.171895268905653e-05,-0.01217247056029262,69,0,33.32391357421875,0.014449117173813631,30.84954751131226,0.017781496262714358,0.0460995861407747,2.211797603728209
94,-0.5096639879856333,0.003653228043302745,-0.5262873503489116,0.00592134686126375,0.018894748667302192,0.09728506787330317,0,-2.2250608602771e-05,0.0005409468021870559,69,0,33.3299560546875,0.011696904378801509,30.879954751131248,0.011867159009862434,0.032338515650991204,2.210117032989734
95,-0.5180971887376095,6.659787137730953e-05,-0.5261031859092699,8.675089184791372e-05,0.026120475351951725,0.07011591744416171,0,-4.2134131183970615e-05,-0.03571731217721345,69,0,33.326934814453125,0.0034402659937651497,30.930271493212643,0.017625746933823086,0.06123676367953655,3.7074329738275487
96,-0.5246909017836315,9.73631716143896e-05,-0.5275111101289126,0.00012657416832669694,0.01342298368705068,0.13570822731128074,0,-2.935186666748515e-05,-0.030681023772676293,69,0,33.46127319335937,-0.0275221279501212,30.96321266968325,0.014712527152013991,0.042659318518328826,2.678497735086056
97,-0.4802503843577647,3.164826308498325e-07,-0.4808274900033803,4.032529665036418e-07,0.03176431913753037,0.0995193666949392,0,-3.077211828042797e-05,-0.04400271440984456,69,0,33.16571044921875,-0.04265929832268786,30.63316742081441,0.0045925530879486025,0.04472347909179635,3.040817198332507
98,-0.4790539285856736,2.968489464453309e-07,-0.4800250892150066,3.92302964248966e-07,0.014719728949392804,0.10404297427198188,0,-3.0298701076113697e-05,-0.0440058444923204,69,0,33.186798095703125,-0.04265929832268786,30.650723981900438,0.005397569402994028,0.044035425567307176,3.9375682891859047
99,-0.4754201417846923,3.1653008569566306e-07,-0.4771031121724357,4.1106196441702477e-07,0.015175582853397034,0.09273395532937516,0,-3.0298701076113697e-05,-0.044028399653689064,69,0,33.10552978515625,-0.04334735152144089,30.64013574660631,0.0032361594250178965,0.044035425567307176,2.8484257878995085
100,-0.4717121793503794,2.999421580342632e-07,-0.473090304051357,3.9015253422562535e-07,0.022182470491191573,0.0995475113122172,0,-3.0298701076113697e-05,-0.04397002409949638,69,0,33.131103515625,-0.04334735152144089,30.60158371040725,0.0043761127891219715,0.044035425567307176,4.243448061588095
101,-0.4687189302252665,3.067968943162597e-07,-0.4702340941685108,3.96722629762902e-07,0.017781366158235782,0.09725756290641786,0,-3.0298701076113697e-05,-0.04401479035075535,69,0,33.14764404296875,-0.04334735152144089,30.55452488687789,0.004365889322335744,0.044035425567307176,3.2542410868048366
102,-0.4650903684177126,3.1605069900639824e-07,-0.4674031562755436,4.068905979884315e-07,0.01842423700353398,0.10178117048346057,0,-3.0298701076113697e-05,-0.044027232142605205,69,0,33.08148193359375,-0.04334735152144089,30.5232126696833,0.0036868974878580788,0.044035425567307176,2.6838078293888943
103,-0.4627610913603418,3.123973404881852e-07,-0.4633696883469522,4.110209145809781e-07,0.014549604713457138,0.11309018942606727,0,-3.313920430199936e-05,-0.04400506659158687,69,0,33.155181884765625,-0.03921903232892271,30.490271493212646,0.007407599790634981,0.04816374671424223,5.268931359760379
104,-0.49207141866667203,0.0008084498200275803,-0.5056770264942632,0.0005059842711944842,0.27225789745760504,0.09725756290641786,0,-3.787337634514213e-05,-0.043647401869992816,69,0,33.3721923828125,-0.0344026599376515,30.910723981900468,0.006343020252893949,0.05504428195913397,3.5548561822064872
105,-0.5050319734003653,0.00039320506763276087,-0.5150225550618315,0.0003923272830758778,0.01780116031994824,0.0995193666949392,0,-4.2134131183970615e-05,-0.04316298904760888,69,0,33.3389892578125,-0.0275221279501212,31.103846153846213,0.005782133702038629,0.06123676367953655,4.349673742837801
106,-0.5308777570183427,0.00035472702034544684,-0.5348812486734518,0.0005799850806074103,0.0496195059497038,0.08823529411764706,0,-4.024046236671351e-05,-0.032264947143108146,69,0,33.32391357421875,-0.01513717037256666,31.01769230769237,0.003514449593958762,0.05848454958157984,3.364717377153725
107,-0.5379223466961153,3.156027062945097e-07,-0.5403455688125047,4.07743285231383e-07,0.016469593724636484,0.1085665818490246,0,-2.2250608602771e-05,-0.031674964875399836,69,0,33.4295654296875,-0.03027434074513332,30.94158371040723,0.0051110989534963605,0.032338515650991204,3.887481829990747
108,-0.541428870756454,3.3062812105369745e-07,-0.5424227987367578,4.3194595954014656e-07,0.012948237178674849,0.08594854396381113,0,-2.177719139845672e-05,-0.03132995204045029,69,0,33.57772827148437,-0.03027434074513332,30.92576576576577,0.00534986153843759,0.031650462126502035,5.124992961288276
109,-0.5441077720091579,3.412180010272934e-07,-0.5457028359713352,4.471152659546069e-07,0.018585335968134897,0.0995193666949392,0,-2.177719139845672e-05,-0.031579618136884896,69,0,33.5853271484375,-0.03096239394388635,30.911447963800892,0.004847262848935796,0.031650462126502035,4.310293255617587
110,-0.5473064837629897,3.199205373098909e-07,-0.5487939922959846,4.218273997439514e-07,0.018107690475938368,0.09725756290641786,0,-2.272402580708528e-05,-0.031767910153392406,69,0,33.574676513671875,-0.03027434074513332,30.841945701357485,0.006251939298550994,0.03302656917548038,4.6208633031455815
111,0.7374981304326815,0.22705759649920512,0.5486439435944079,0.2899158080381533,0.02430322649220523,0.12692599118407047,0,-4.0435390214738216e-05,-0.027829355210333022,69,0,33.22402596860497,-0.002994891708579429,32.43662388577682,0.04962562314747993,0.058767853170110726,5.009301975583045
112,0.389068306781561,0.003092404779484019,0.30884314717638484,0.004160418345907621,0.017649799528661622,0.07752643382072176,0,-3.0390934683443933e-05,-0.017807831725848614,69,0,32.17263421783506,-0.007007455714695111,31.97245290251207,0.027578997478520377,0.04729488442303967,4.318583894954922
113,1.0095436617957159,0.16845459514193784,0.8325841282730511,0.22275462728519535,0.037719433626316703,0.1080861550090689,0,-2.1526374694260492e-05,0.01735710792234064,69,0,32.28157093535038,0.0873827562416348,33.417383743299766,0.024762065754073182,0.08738279761012517,3.6335720316490234
114,1.1139867071703207,0.004610642158630118,0.9042145850335634,0.007543853142382581,0.02730650923862338,0.06078174122021848,0,-1.95056311138016e-05,-0.021288964417149434,69,0,32.41294342502781,-0.01814096065823698,32.12048612906491,0.01288348893955486,0.028349029382395367,4.158306895439374
115,1.928678289560221,0.1455490539467736,1.8330185834186128,0.19307080024573986,0.012985207291611874,0.18302567088370225,0,-4.0301833710545614e-05,-0.02270558574615795,69,0,33.774069462596756,-0.013706174351862563,32.279653376524934,0.3063569021651483,0.058573745261503385,5.595084831230987
116,-0.518222371219975,6.718195452249935e-05,-0.5261299155299809,8.750694182624148e-05,0.025879411854748527,0.0713611958049195,0,-4.189145826337813e-05,-0.03562169760011728,69,0,33.32948524569438,0.0028524409994374576,30.93089688564538,0.01757043908505594,0.060884068515968094,3.6878985072106283
117,-0.5105972877399553,0.0012470718504916517,-0.5179266586800296,0.0016673098062622315,0.01552051355904668,0.10081955207840532,0,-3.478948556738092e-05,-0.0318331614914945,69,0,33.27139285919969,0.009444690022051096,30.846382990909465,0.02378861129139425,0.05056222702018914,2.617547032068731
118,-0.5246738730118605,9.728371785706826e-05,-0.5275074740561809,0.0001264713216481109,0.013455775937201285,0.135538830119309,0,-2.9384877850053945e-05,-0.030694030375362134,69,0,33.46092625414947,-0.027442165183122418,30.963127596557978,0.014720050766468715,0.04270729620124154,2.681155039585877
119,-0.5170754863090559,0.00022741241168693045,-0.52498930750876,0.0003020685182851434,0.02467645539625183,0.07429863640019062,0,-4.113357900792427e-05,-0.03518817903402818,69,0,33.319368401164894,0.0042582414061984614,30.918843464154968,0.018465306480401924,0.059782584480111034,3.5589591321208816
120,-0.5115369173508721,0.024002636838429132,-0.5392691232395141,0.03146667207468335,0.036730538912132835,0.1276677308391594,0,3.4110057058736246e-07,0.016872187984184373,69,0,33.10872578791209,0.03117910623231967,33.79841456720161,0.004682160083183973,0.031807575837655554,2.475397158671088
121,-0.5206665976952548,0.0004306542088321077,-0.5247472975499933,0.0005732083228055706,0.013918854854062954,0.12617947451406547,0,-3.0814470124669344e-05,-0.03097044678291733,69,0,33.40745483798113,-0.017086810814352635,30.92966197420079,0.017315846796442623,0.04478503227455636,2.651792095388299
122,-0.5817143367418695,0.003343894982284352,-0.6027188478034744,0.004462724581014447,0.016093992421471748,0.13570822731128074,0,-7.11542593086612e-06,-0.0016467629047399734,69,0,33.000682106572725,0.0017573452560050232,32.23998049437955,0.010040401313525557,0.0437642048227639,2.4176429363100005
123,-0.5142664802893709,0.009718040893826455,-0.5252539495308751,0.011322270960270546,0.013090229298777237,0.09154997604541755,0,-3.142442066658608e-05,-0.012178531991902266,69,0,33.33655193448807,0.014112129227051668,30.864116621386774,0.017620032188884367,0.04567152016790991,2.232689913456036
124,-0.4879116750385973,0.002927049338543792,-0.5018760678379349,0.004665581115786738,0.016478553782870543,0.1055076049633165,0,-2.3575737246774812e-05,-0.00848065067123827,69,0,33.30505586649307,0.006304355939327618,31.408485326710696,0.010671640710308596,0.034264426719704956,1.9571873646546976
125,-0.5233728437265803,9.121330558715216e-05,-0.527229671454153,0.00011861364744041038,0.01596116378018657,0.12259657506048796,0,-3.190699252991221e-05,-0.03168775859157148,69,0,33.434419464443245,-0.02133286364357786,30.956627854306426,0.015294868661050544,0.046372878860316935,2.8841779598913098
126,-0.5225770985569494,8.750047506434555e-05,-0.5270597597687084,0.00011380767853098341,0.017493527652901422,0.1146807371437655,0,-3.3449586994509556e-05,-0.03229555000481717,69,0,33.418207185357915,-0.01759624737758512,30.952652433799727,0.015646443040048752,0.048614849681299394,3.0083523424246006
127,-0.5210939457130669,0.0003952614400498202,-0.5250407917296744,0.0005257794465546406,0.013866197411767547,0.1271913497428467,0,-3.065915365887888e-05,-0.030939712438041913,69,0,33.41316990498097,-0.018194955724696676,30.93322478230271,0.017039395647288375,0.044559298945212905,2.6546280148264456
128,-0.5220396447258734,0.00031693907723822224,-0.5256902791367059,0.00042082180177916936,0.013749669221346466,0.12943057717589046,0,-3.031544637056003e-05,-0.030871698925877423,69,0,33.42581705202412,-0.0206472229731191,30.941109091962204,0.016427623583426046,0.04405976278774912,2.6609037575496357
129,-0.5475866856302327,0.0002718607498630884,-0.5729406296520254,0.00037983057998838246,0.017548385710799034,0.1333291911171572,0,8.725010358722972e-06,0.015819609666665565,69,0,32.60109777674933,0.01837603911182236,33.41655953647956,0.004733956913007758,0.04300124874370027,1.322467444744825
130,-0.5419988535308071,3.3288130196558236e-07,-0.5431206836330597,4.351734929725193e-07,0.014147627863223657,0.08883597222669905,0,-2.177719139845672e-05,-0.031383072839197196,69,0,33.579345064549564,-0.030420736014735723,30.922719404695783,0.005242924937045754,0.031650462126502035,4.95165144747392
131,-0.4753594690892271,3.153401713456585e-07,-0.47594538135044007,4.0542528849871903e-07,0.02695019030838782,0.10331447402786981,0,-3.143407855329614e-05,-0.044003372202106344,69,0,33.162766115411365,-0.04169722115471909,30.593206292927633,0.005379786448487765,0.0456855567152289,3.6639137165152738
132,-0.46898636053043363,3.061844614250732e-07,-0.4704892807729877,3.961356279528055e-07,0.018174580563598802,0.09746215717017022,0,-3.0298701076113697e-05,-0.04401079073303729,69,0,33.14616623805166,-0.04334735152144089,30.558729333287538,0.004366802732722994,0.044035425567307176,3.3426212757173586
133,-0.4582931202722826,0.0006000428050995085,-0.5118291755644194,0.0009937359381018748,0.020582261247310402,0.14003441982864576,0,2.6381104949171085e-05,0.039474050711716606,69,0,33.106755876744025,0.04197124512393483,32.62686999047161,0.005265830959017858,0.04197126499383968,2.5799569948387275
134,-0.5103807062866957,0.0004998296199719026,-0.5206021422753612,0.0005432502965480902,0.017513590278207918,0.10120928828228812,0,-3.953483169923123e-05,-0.03982520612392708,69,0,33.4353751516736,-0.02480800949877999,31.22007707709902,0.005729410436161958,0.05921951252421465,4.360337603991208
135,-0.3993279007016806,0.0013801248895955163,-0.4141242169352321,0.002833023934446593,0.07192629010456753,0.14701724625388746,0,-6.0597402152227395e-05,-0.03312306778974379,90,0,33.03790283203125,0.01100885118004848,32.76868778280548,0.04299938110130196,0.08807085113461435,2.0966358452920915
136,-0.426941879075317,0.00023459602042840485,-0.43479224189441024,0.00029219634261694647,0.01867797448387756,0.12213740458015268,0,-3.077211828042797e-05,-0.027744218609526496,90,0,33.08148193359375,-0.01720132996882575,32.89004524886879,0.018796807491396183,0.04472347909179635,1.5075798753745084
137,-0.4472838047835715,0.00012008118702935349,-0.4574481435968333,0.00016901536529021673,0.012909177919297993,0.12439920836867402,0,-1.941010537688534e-05,-0.022310358471783896,90,0,32.99285888671875,-0.01720132996882575,32.897601809954786,0.007417480984209237,0.028210194504056162,1.1695984167795128
138,-0.4633099541399121,5.075539894150097e-05,-0.469487492999947,6.598301572564092e-05,0.011678065938054582,0.12666101215719536,0,-1.941010537688534e-05,-0.02156185253028415,90,0,33.066436767578125,-0.015825223571319692,32.891085972850725,0.00821843730348022,0.028210194504056162,1.3269800743795634
139,-0.4755211439071666,3.5553717279180865e-05,-0.4815784173361392,4.3984999192254304e-05,0.01180223738418035,0.12217194570135748,0,-1.7989853763942512e-05,-0.02303032364016247,90,0,33.066436767578125,-0.020641595962590898,32.89796380090499,0.006750344823557388,0.02614603393058864,1.2769170059802208
140,-0.4848179145558208,6.533839671962818e-05,-0.4874004831351153,8.6877544289814e-05,0.012317669631707244,0.12439920836867402,0,-1.7043019355313955e-05,-0.02267384358922431,90,0,32.932769775390625,-0.020641595962590898,32.90248868778275,0.007244233191462572,0.02476992688161029,1.327861402206428
141,-0.4934653016862469,0.00035054011149873113,-0.5059686427107165,0.0004522755461895328,0.013648667044001464,0.12213740458015268,0,-2.0356939785513888e-05,-0.021775775231987943,90,0,33.1807861328125,-0.00756858518628333,32.92076923076929,0.0259760466220634,0.029586301553034506,1.5922328536637236
142,-0.5040821438819033,0.0002655535423416572,-0.5064270207169039,0.0003489423710651689,0.015050946425691063,0.1402318348883234,0,-1.7516436559628233e-05,-0.01664092464857439,90,0,33.131103515625,-0.002064159596259089,32.94194570135742,0.02821496456159743,0.025457980406099458,1.8996477086199213
143,-0.5066836033962934,0.00010422770417961143,-0.5080351495914885,0.0001354944292624059,0.012751513374643579,0.11309018942606727,0,-1.2782264516485464e-05,-0.014852847654483768,90,0,33.06494140625,-0.012384957577554541,32.97407239818997,0.014839404854175441,0.018577445161207715,1.3994969610015306
144,-0.5075762649417367,4.088672202423076e-05,-0.5084771494303761,5.3152936086387734e-05,0.010824414679516104,0.11535199321458862,0,-1.372909892511402e-05,-0.01388987936464614,90,0,33.09051513671875,-0.01100885118004848,32.98882352941169,0.008661803368238373,0.019953552210186062,1.4056095711819625
145,-0.5147482236258031,0.000175935841414759,-0.5247165722425811,0.00022871453357456583,0.019180503911746825,0.11990950226244344,0,-1.941010537688534e-05,-0.014013246369173605,90,0,33.0889892578125,-0.004128319192518179,33.01714932126696,0.034824596405277485,0.028210194504056162,2.058206878160279
146,-0.5146058482561019,2.587553939290415e-05,-0.5159310896247147,1.0243076826648337e-05,0.013448584968875622,0.11761379700310998,0,-1.136201290354264e-05,-0.01223715643819569,90,0,33.1220703125,-0.008256638385036359,33.0496380090498,0.006855475754606153,0.01651328458774019,1.338438104882525
147,-0.5132953305849997,5.757584800770918e-05,-0.5147282166903161,9.823990662891773e-05,0.01285067873303332,0.12213740458015268,0,-1.2308847312171187e-05,-0.01183467068669672,90,0,33.11907958984375,-0.010320797981295449,33.06601809954753,0.006307542304086382,0.01788939163671854,1.3857385635460049
148,-0.5134573999474621,8.705848529885605e-08,-0.5145095996226045,1.199699828274936e-07,0.01397655449938137,0.1289228159457167,0,-1.088859569922836e-05,-0.01331843845771695,90,0,33.132598876953125,-0.01100885118004848,33.06963800904977,0.007300471071028795,0.015825231063251018,1.2048752952231696
149,-0.5143161971555611,0.00011674649042088557,-0.5152023478343046,0.00014678891387143834,0.013558965285307176,0.11761379700310998,0,-1.088859569922836e-05,-0.013890657705368892,90,0,33.05743408203125,-0.012384957577554541,33.07434389140271,0.008410900334415716,0.015825231063251018,1.2270648685671044
150,-0.5136300897390647,0.00010091221788874108,-0.5147288294175816,0.00011731600156747857,0.012616794673457592,0.11761379700310998,0,-1.1835430107856916e-05,-0.013405563339865494,90,0,33.2349853515625,-0.01100885118004848,33.065225225225205,0.004163055647005118,0.017201338112229368,0.9324363275532052
151,-0.5249952403830961,0.0010283760254232838,-0.5394290972027487,0.001054802156759063,0.013202748398073377,0.13118461973423806,0,-3.4559455914942184e-05,-0.027761856892673145,90,0,33.0213623046875,-0.006192478788777271,33.06230769230769,0.024072527411523614,0.05022790728770975,2.2592500006338128
152,-0.5338840763194844,0.002847088315829066,-0.5421807994368341,0.003937814847145832,0.01549230343676165,0.09276018099547513,0,-5.444297849614181e-05,-0.028506728964174364,90,0,33.0980224609375,-0.00963274478254242,33.09208144796377,0.1423013119610694,0.07912615531625508,2.7889386765457265
153,-0.5240607440460155,0.0008513216064487693,-0.5297011830943139,0.0011711045280853975,0.010414713035884614,0.11987560079163133,0,-1.7989853763942512e-05,-0.02282010696666999,90,0,33.209381103515625,-0.018577436366331808,33.11036199095018,0.004898226891908757,0.02614603393058864,1.1390669466189838
154,-0.5199983272179983,1.3940677855454514e-05,-0.5220288981669847,1.3088331290011016e-05,0.01846153846153825,0.12213740458015268,0,-1.8936688172571066e-05,-0.023605906604504217,90,0,33.17474365234375,-0.01926548956508484,33.09769230769227,0.004576527240045815,0.027522140979566984,1.1144861569346471
155,1.6030516626153193,0.28926928744599856,1.135900787046221,0.3809436523529418,0.019066049946429544,0.0791631325982471,0,-3.408603871062791e-05,-0.02515246962025295,90,0,33.50360107421875,0.02614602155261514,32.72085972850677,0.024046565103909484,0.04953985376322058,1.6031092616948217
156,2.141533932195516,0.3664841396236425,2.0154338146601347,0.4693429412169538,0.02185618726883504,0.07237772123268306,0,-3.3612621506313634e-05,-0.0191519160579984,90,0,33.641326904296875,0.00550442559002424,32.68583710407239,0.016985025518816952,0.0488518002387314,1.3739852162430486
157,2.5462731066388606,0.3169525198989434,2.1998235054006936,0.4176541901320152,0.022925686667818242,0.1334464235227594,0,-3.2665787097685084e-05,-0.015564479429258303,90,0,33.78076171875,0.0137610639750606,32.6295475113122,0.019802922116489773,0.04747569318975305,1.3028172488932226
158,2.8209209721009962,0.2223514374763641,2.7221939088107017,0.2631021721258395,0.023842504464585558,0.0791631325982471,0,-5.396956129182754e-05,-0.017821705803767008,90,0,33.82781982421875,0.0275221279501212,32.55615384615387,0.018936984699400385,0.07843810179176591,1.6085316941226198
159,2.7294472808846844,0.128197582258201,2.606671022439732,0.19326033344845805,0.016367085660188258,0.07692307692307693,0,-2.793161505454232e-05,-0.015607677339360963,90,0,33.81112670898437,0.010320797981295449,32.49190045248866,0.0173174083046061,0.040595157944861314,1.4412970310776865
160,2.5557735882709065,0.16805102233653255,2.4298532761210887,0.2083352836222244,0.016919446945359087,0.14701724625388746,0,-4.544805161417056e-05,-0.01665065390760649,90,0,33.78076171875,0.011696904378801509,32.4585972850678,0.018969591075923255,0.06605313835096077,1.4580792664974869
161,2.987312258078707,0.2262363838587101,2.7313230638955592,0.3013083927297698,0.015492303436764302,0.06333050607859768,0,-1.4675933333742575e-05,-0.012679781955539206,90,0,33.802001953125,-0.00275221279501212,32.43561085972847,0.0278921381331935,0.021329659259164413,2.3721961880334947
162,2.869988912803768,0.12227829372326095,2.643171523751581,0.1647262173145206,0.018532602115414538,0.13797003109980208,0,-1.372909892511402e-05,-0.012635583290222551,90,0,33.884033203125,-0.00068805319875303,32.393619909502284,0.028531931021629126,0.019953552210186062,2.7055652615239065
163,2.4234347765969884,0.10654260839031693,2.267788861136582,0.1377504178421849,0.019839448948175097,0.1786824992931863,0,-6.0597402152227395e-05,-0.012622606251629215,90,0,33.8323974609375,0.01995354276383787,32.33343891402724,0.02062778242963102,0.08807085113461435,3.415268844106445
164,2.270972479840981,0.07503400898004049,2.131520507116396,0.09928923325595908,0.018005183877568498,0.0542832909245123,0,-1.8463270968256787e-05,-0.011977496209288507,90,0,33.91293334960937,0.0,32.279502262443515,0.017137447782903145,0.02683408745507781,3.1695813777148087
165,2.206991387629589,0.17098573455330282,1.929923987464064,0.20310876927226232,0.021415673422985008,0.0904977375565611,0,-2.793161505454232e-05,-0.012325025341916585,90,0,33.93572998046875,0.0137610639750606,32.226289592760146,0.028197451314240486,0.040595157944861314,3.679717660840239
166,-0.4452207994080541,0.0004181289530674244,-0.4489203565896309,0.0006332910480301048,0.0240288109454329,0.11987560079163133,0,-2.4144277420028103e-05,-0.033759750500807324,90,0,32.9117431640625,-0.032338500341392414,32.82809954751133,0.007456749026573638,0.035090729748947905,1.34819940946176
167,-0.4413245981012564,0.0014408379841768775,-0.4465840303839656,0.0017923132105657985,0.01684862758535475,0.06106870229007633,0,-4.639488602279911e-05,-0.03406971842372721,90,0,33.14013671875,0.006880531987530299,32.78085972850687,0.057039513112292224,0.06742924539993912,2.8857391629354625
168,-0.4302316716686971,0.002613132021013175,-0.4463006510193716,0.003419334175846664,0.011311131169586626,0.1289228159457167,0,-2.603794623728521e-05,-0.03437308299019419,90,0,33.25006103515625,-0.02132964916134393,32.77452488687795,0.007306277733016886,0.037842943846904606,1.3315339520768226
169,-0.4319513883119867,0.0010588724402058641,-0.4390752809972561,0.0014349816227831704,0.010262619006215504,0.12666101215719536,0,-2.698478064591377e-05,-0.03168973112967928,90,0,33.240997314453125,-0.00756858518628333,32.76819004524899,0.007596034590038122,0.03921905089588296,1.3064971692645198
170,-0.4378227636689563,0.00011341442864344731,-0.4397925439059917,0.00014773219153053557,0.013637261387055849,0.12669683257918554,0,-2.1303774194142445e-05,-0.030246709649480983,90,0,33.24554443359375,-0.029586287546380288,32.75787330316744,0.0031905230967621987,0.030962408602012863,1.0778233001713442
171,-0.4392217297124163,0.00014231337428758886,-0.4404115766609295,0.00018449255586164398,0.012892672447790356,0.12439920836867402,0,-2.1303774194142445e-05,-0.030254493056706893,90,0,33.2349853515625,-0.029586287546380288,32.745927601809896,0.004413344755037076,0.030962408602012863,1.025695759671027
172,-0.4668522142680304,0.0001934761800641917,-0.4700910089986478,0.0002532287140221561,0.010135746606335507,0.11761379700310998,0,-3.5979707527885024e-05,-0.04479156273217302,90,0,33.402374267578125,-0.03853097913016968,32.94638009049766,0.00566564706725665,0.052292067861177266,2.2959993364462794
173,-0.4679483908931744,0.00011137875858737932,-0.4687208429705829,0.00014417120953393156,0.011651386019499438,0.12666101215719536,0,-3.313920430199936e-05,-0.04479113528275963,90,0,33.440155029296875,-0.03990708552767574,32.925746606334826,0.004693200793544863,0.04816374671424223,1.6908986848173782
174,-0.4632625224522656,2.146761725453759e-06,-0.4656774459819604,2.8810820931108482e-06,0.020783372387599013,0.1289228159457167,0,-3.124553548474225e-05,-0.04476626665868942,90,0,33.4385986328125,-0.04403540472019392,32.89280542986425,0.003902236615752942,0.04541153261628554,1.4097459604533007
175,-0.4596827499577481,0.00014808235232852745,-0.4622934897866761,0.00019238665252367123,0.015059378252921285,0.12439920836867402,0,-4.1187296775342064e-05,-0.04467211647053885,90,0,33.462799072265625,-0.03027434074513332,32.84484162895929,0.00547579253892445,0.05986065663055819,2.3932245103385292
176,-0.4568444175229616,9.60468726405072e-05,-0.4592631111918586,0.00012551144079435205,0.01578712216279111,0.13122171945701358,0,-4.0713879571027776e-05,-0.044768212510495536,90,0,33.391815185546875,-0.029586287546380288,32.81244343891411,0.017875949200296518,0.05917260310606901,2.3795176452725264
177,-0.4620798983661097,1.9363636980232965e-05,-0.4674325525773734,2.513189913627265e-05,0.014407626361943624,0.11535199321458862,0,-3.2665787097685084e-05,-0.0448188046574628,90,0,33.3721923828125,-0.0412831919251818,32.77606334841639,0.007284571349311594,0.04747569318975305,1.9614972677407199
178,-0.4703177250430608,0.00044333537829855535,-0.4721643643234724,0.0005741077202520684,0.01362764921924633,0.12666101215719536,0,-3.3612621506313634e-05,-0.044737460132150166,90,0,33.462799072265625,-0.0412831919251818,32.75208144796375,0.004863946895866504,0.0488518002387314,2.024642036868125
179,-0.4419824783524207,0.000706558393696965,-0.4715056768368397,0.0008555929009397398,0.6145738403991179,0.13797003109980208,0,-4.592146881848483e-05,-0.042194239740952,90,0,33.835418701171875,-0.008944691583789391,31.95334841628961,0.05513429505909519,0.06674119187544994,2.2228899326267206
180,-0.4190061094372103,9.49605443354483e-05,-0.4200807176133985,0.00012337175162841976,0.011475741164993312,0.12213740458015268,0,-3.2192369893370815e-05,-0.04470828885464538,90,0,33.943328857421875,-0.04059513872642877,31.47361990950226,0.0061222971487794155,0.04678763966526387,1.8670540181017845
181,-0.41007332265308377,6.319377846222856e-05,-0.4182030059246322,8.222067732766675e-05,0.01579490175335051,0.1334464235227594,0,-3.5032873119256466e-05,-0.04466235817222588,90,0,33.9266357421875,-0.037154872732663616,31.47054298642536,0.006404586999987269,0.05091596081219893,1.6444019139789587
182,-0.4186111022267778,0.0010206799858236489,-0.4277214759768209,0.0013264125273704064,0.0129768833091664,0.07239819004524888,0,-4.260754838828489e-05,-0.015090469929212268,90,0,33.86883544921875,0.016513276770072718,31.455701357465987,0.02758999145039657,0.06192481720402573,2.429251810100635
183,-0.4247442590955964,9.083696960759766e-08,-0.4273352002808901,5.971922771129421e-07,0.01705396188389717,0.11987560079163133,0,-3.077211828042797e-05,-0.0433387946133732,90,0,33.84454345703125,-0.04197124512393483,31.43452488687781,0.002954745061561075,0.04472347909179635,1.3523173139593905
184,-0.4177550798698315,0.00019468073614582106,-0.4236993392111548,0.0002457952546393859,0.017052040851856843,0.12666101215719536,0,-3.2192369893370815e-05,-0.04273285152097109,90,0,33.862762451171875,-0.03990708552767574,31.41895927601811,0.0026427831029395533,0.04678763966526387,1.0629760560616353
185,-0.4074386890562871,8.618887161899798e-08,-0.41143441208764,7.401714366046217e-06,0.01479188219511966,0.12439920836867402,0,-3.077211828042797e-05,-0.04269391490532789,90,0,33.929656982421875,-0.04059513872642877,31.403393665158372,0.006136112178591564,0.04472347909179635,1.8368697330953967
186,1.4366096600064313,0.14401279326335972,1.1535846048976737,0.18578169905492598,0.05721340778261366,0.12058831952591813,0,-4.4064377290761625e-06,0.00488257844694321,90,0,31.828631737255005,0.015335934554408555,33.12879694259483,0.01941965467822067,0.026972107673953027,2.35519244916835
187,0.5670943736488319,0.03377551878869251,0.4439266805973249,0.044540552513721965,0.019879315630597978,0.04943824997590797,0,-1.8133653572977894e-05,-0.022292799461377247,90,0,32.279112538750546,-0.019897332693863998,32.042703212478926,0.015253511654086501,0.02635502921957688,3.3771819059647457
188,1.6216109576653277,0.02262399796911868,1.336353250356081,0.0311169588003804,0.0388397625430207,0.06143273582849945,0,-3.4464213710433994e-05,-0.019878377149020722,90,0,33.12869458079313,-0.012769602225471747,32.144840106582976,0.031178666645362646,0.05262223300795427,3.3823956590789344
189,2.3854888525023448,0.33662915373247926,2.12657396404617,0.4381877530169768,0.022500823758510122,0.10918663754503881,0,-3.3041920849480934e-05,-0.016989602963216426,90,0,33.7253706816127,0.01048108138815431,32.65190877693479,0.018683501434481956,0.0480223572130374,1.3310890082663827
190,1.0430179017160455,0.21526871762733074,0.8377166669032493,0.28441784263034814,0.03263879949385191,0.0888378608224385,0,-1.4759659514552353e-05,-0.00026042621294483474,90,0,32.21648734378112,0.013148529337999855,33.39824413524162,0.015527829762667106,0.033383196793969165,2.8820552814735594
191,2.5805827717467986,0.1249616405320067,2.459078760017073,0.18616816526819036,0.018044899175646303,0.08553569446345735,0,-2.428138387637128e-05,-0.010350947332779647,90,0,33.881723105751995,0.014731110351268862,32.59847510364349,0.01692690138993113,0.042193097965836195,1.631580344856971
192,1.6281783699451795,0.06776484762768875,1.521324759149648,0.08692362128022628,0.05261902909783345,0.17448458624792412,0,-2.0563947913523045e-06,0.0242184520437235,90,0,34.14732161048196,0.042777549334666376,33.72911075295282,0.012455214227428783,0.04277756958628939,4.039443469608158
193,1.572453783101961,0.19224924478725247,1.2436673766474047,0.24891430588472824,0.03690870548564353,0.12433601686635434,0,-1.0556099304262358e-06,0.01165109958428817,90,0,32.66598026876648,0.04075522314320895,33.00032573810214,0.02450264052520395,0.04075524243742818,3.0870722160901
194,-0.453491117566128,0.0032673512442156567,-0.4751990916942144,0.0043285425021624,0.011384770656388078,0.11674119434953042,0,-2.9164909205043096e-05,-0.023923384737026557,90,0,33.50712598672046,0.004652951338419588,32.68831292860164,0.008928434960052297,0.04238759890233149,1.649844010625326
195,-0.46780835549600736,0.00011487200311254162,-0.47146856189626857,0.0001490683008759006,0.017686790367783457,0.10472545758308183,0,-2.8853265855631637e-05,-0.03223436826569284,90,0,33.26831035428378,-0.017616560350595386,32.08788411946918,0.009201881030516886,0.04193466372593302,1.9976307460212983
196,-0.4391957631545937,0.0001699663162058873,-0.4414865722348086,0.0002378469305953003,0.015565826306420161,0.1254308819855395,0,-2.1830942432527847e-05,-0.030898693966940165,90,0,33.18359434474119,-0.030097069987176824,32.77090657318165,0.003982290832661033,0.03172858262592737,1.1280023303999356
197,-0.44301185201717835,0.0044012077244991055,-0.4622354347148914,0.005723261692368465,0.01289489086459225,0.12953563119304384,0,-2.3055712844190816e-05,-0.029158991251665024,90,0,33.192907363251365,-0.016156444730749335,32.8786226032552,0.007108624835575485,0.03900808053151677,1.3983516078606248
198,-0.5201760311793776,0.007044744363165939,-0.5303964977603455,0.008300014758002834,0.013009221112695965,0.08971971087928543,0,-1.9434495573389783e-05,-0.0035220432794584745,90,0,33.681723667366526,0.01742477301407183,31.345064440520897,0.0163905882199406,0.03854599466258318,2.349219858273236
199,-0.43890514906524614,0.0001357736537866323,-0.44027149192399545,0.00017617382647964257,0.013061170067421928,0.12491915191049048,0,-2.1303774194142445e-05,-0.03025273170152012,90,0,33.237374831306205,-0.029586287546380288,32.748630868186055,0.004136624906288717,0.030962408602012863,1.0374920220493216
200,-0.4388817874536448,0.00013529106455797849,-0.4402611545731663,0.0001755599578601423,0.013073604105891326,0.12495752039317289,0,-2.1303774194142445e-05,-0.030252601724858143,90,0,33.23755115951262,-0.029586287546380288,32.74883035182379,0.004116204764733563,0.030962408602012863,1.038362510193472
201,-0.4427659822114255,0.0003052653158306122,-0.44543856685371686,0.0004496428638462727,0.019471907012823295,0.12172665941143677,0,-2.298194450513406e-05,-0.032325400395049234,90,0,33.044013752805256,-0.031212295839569432,32.79447481640761,0.006211389075597659,0.03340142219646675,1.2162310300882948
202,-0.4400440442798381,0.0012547355464326646,-0.4477700523204521,0.0016912432942780076,0.010478199491897072,0.12690259383792862,0,-2.5450964711291088e-05,-0.029177151547810996,90,0,33.31079212486032,-0.005584342201162294,32.79209084138195,0.0075652995270968386,0.039537509797345216,1.3691599844442655
203,-0.5490018648453534,0.02335808264419643,-0.5800197215812112,0.030334756063730386,0.0340264319190398,0.1261340867173698,0,-3.188971607433876e-06,0.015317730521771947,90,0,33.42804575188068,0.030619412906636737,33.48129377027445,0.005247941134508952,0.03199414036787266,2.702433188120385
204,-0.591342295717166,0.02261429198411095,-0.6164934502161945,0.029344322063192083,0.03308663259175951,0.13923302634696585,0,3.803004789394294e-06,0.018590522936593065,90,0,33.13647457992449,0.030513129597819922,34.25687326185386,0.011453505994825409,0.030513144043257008,2.7205510918647042
205,-0.4620832332952882,0.0004067589182110581,-0.465823078204353,0.0006135975198974842,0.023579612763475335,0.12287648821586608,0,-2.1203559576889355e-05,-0.029396363440404392,90,0,33.010055900480275,-0.02798154194643946,32.9018167282164,0.007474518988227898,0.03538119377945534,1.438728508514227
206,-0.44460716046581866,0.0023564748483114115,-0.4603000007750576,0.0031351073193781943,0.01092194463835641,0.12083257520239032,0,-2.8265725730453212e-05,-0.027126576725393984,90,0,33.397362503638114,-0.00038776226128590507,32.72125785883817,0.008378892874913673,0.041080746609647854,1.5082322673584203
207,-0.5462560057055674,0.013195230827907033,-0.60966533057249,0.01671962840654841,0.029230541256838365,0.14043856260251453,0,1.723899721502733e-05,0.03982573364181992,90,0,34.34583208510046,0.051054660837109044,34.664048419321624,0.008516361894197183,0.05105468500725812,2.0478095640865988
208,-0.4390354391511495,0.00013846510303809455,-0.4403291443818195,0.00017959743425692142,0.012991824169204377,0.1247051669770029,0,-2.1303774194142445e-05,-0.03025345659459442,90,0,33.236391430950384,-0.029586287546380288,32.74751832763275,0.004250510114329271,0.030962408602012863,1.0326372210615011
209,-0.46530244463293163,0.00011727752066630327,-0.46874609869740125,0.00015217360004821822,0.01726653677557837,0.10645006356436412,0,-2.8191475502742753e-05,-0.03206081190296255,90,0,33.26538907609714,-0.018665829670977633,32.145568377949246,0.008782116726684818,0.04097283306023576,1.912430678726314
210,-0.5171564239939513,0.006384208103227281,-0.5546023065368982,0.009102364805354509,0.017610865920023394,0.09149190053997812,0,-2.7611228572868715e-05,0.0017043913389460093,90,0,33.74074657898308,0.025016994937538006,31.43661357642381,0.01252640959050121,0.04012951570392603,2.451959966935359
211,-0.6424698939991069,0.027430431729359505,-0.7028070041981036,0.035142175580831506,0.032012973068957784,0.13448576245911692,0,1.1009669374497399e-05,0.03645148417745114,90,0,32.884414254783614,0.05032572919863931,33.868176444895596,0.0050724337582480315,0.051269458810786546,2.599300882353661
212,-0.5685746885968855,0.00422616515797343,-0.5876069938134191,0.006351148236849649,0.017266097043515557,0.1067128378374991,0,-1.5799191269403686e-05,0.0065998211145952,90,0,33.842227237674,0.01973376300508961,31.61705681876205,0.01336636306648157,0.034634762059869595,2.5723035065358344
213,-0.9717399263719438,0.4420653041552342,-1.6418408224729877,0.5714845563513928,0.18567196101551925,0.1289228159457167,0,-1.7989853763942512e-05,0.021215297753524084,80,0,34.62939453125,0.05986062829151361,34.06036199095026,0.03368459661829778,0.05986065663055819,2.9997987194096587
214,-0.9083664696222532,0.2546791114890958,-1.5412399300869088,0.3367171394531712,0.046308586311303065,0.1583262651964942,0,-8.994926881971256e-06,0.03429914062154993,80,0,34.65704345703125,0.07155753267031513,33.78248868778286,0.01900995330501965,0.07155756654687416,2.8604805140694314
215,-0.6730746749863865,0.03210958053243178,-0.8457758639150934,0.03643271171220696,0.1688374212495344,0.07237772123268306,0,9.468344086285532e-07,0.03895026762550942,80,0,34.681610107421875,0.06467700068278481,34.004389140271435,0.012947924240637692,0.06467703130198241,2.5351984949459143
216,-0.7032518563900971,0.00295500197063555,-0.7652523568278886,0.009448513873690124,0.09304589042216099,0.13118461973423806,0,8.994926881971256e-06,0.018683679874962857,80,0,34.79232788085937,0.022705755558849988,34.48402714932132,0.004571165339238486,0.022705766308142764,2.329348126565651
217,-0.8010316196859008,0.01923007433868889,-0.8834505133743225,0.02466351150527085,0.06936425778439441,0.07466063348416291,0,8.521509677656977e-06,0.026736392990685483,80,0,34.790771484375,0.057796468695254524,34.1551583710407,0.015152221386069113,0.057796496057090675,2.9447971047935866
218,-0.8521390579811928,0.0025473698759359447,-0.8788489593425212,0.003633150790402449,0.09532758647885327,0.047497879558948256,0,2.2250608602771e-05,0.03576087461828818,80,0,34.75692749023437,0.04403540472019392,34.30638009049777,0.0048498889058330615,0.044035425567307176,2.201128984882752
219,-0.8869882018415007,0.0022350790640733482,-0.902126739851492,0.00286005342901792,0.1667401106239858,0.11082838563754592,0,2.272402580708528e-05,0.03865745949758762,80,0,34.76922607421875,0.04403540472019392,34.72212669683261,0.0070935773418522126,0.044035425567307176,2.0429009159253964
220,-0.8870015790297568,0.000684969425512026,-0.8931739943384522,0.0009521063881005401,0.1286823095487915,0.12213740458015268,0,2.5091111828656657e-05,0.041712982080421936,80,0,34.835418701171875,0.04403540472019392,35.17923076923082,0.005044573965543813,0.044035425567307176,1.8970692959161424
221,-0.8844986454884413,0.0007428529138027903,-0.8908712336890678,0.0009510124144957252,0.06446596663829503,0.12439920836867402,0,4.734172043142766e-07,0.01963481223794448,80,0,34.88934326171875,0.06398894748403179,35.60873303167424,0.006354464914760378,0.06398897777749324,3.4204317324690456
222,-0.8874774248488242,2.811790330279147e-05,-0.8904507478677708,5.11902345714307e-05,0.019457373928950014,0.12666101215719536,0,9.941761290599808e-06,0.017575889171990815,80,0,34.903228759765625,0.01926548956508484,35.63126126126122,0.0026751379491938873,0.01926549868569689,1.9417315247030296
223,-0.9092167166807688,0.0036478228401821385,-0.9630593830686892,0.0047420537780266106,0.05081889151338498,0.12213740458015268,0,1.8936688172571063e-06,0.020991849287748363,80,0,34.974151611328125,0.031650447142639385,35.57687782805433,0.007070342772320195,0.031650462126502035,2.159066829127603
224,-0.8846406707604457,0.008775626738407195,-0.9320787011928786,0.008904755977332418,0.021476583231053174,0.12443438914027152,0,3.7873376345142126e-06,0.02099613016172167,80,0,34.98651123046875,0.05642036229774846,35.489457013574594,0.005383947269671301,0.056420389008112325,2.0965967819898634
225,-0.9002187407591409,0.0025416309332697965,-0.930303636225539,0.0057980738957338655,0.041216926076413085,0.12439920836867402,0,2.0356939785513888e-05,0.03848352718542807,80,0,34.988037109375,0.045411511117699976,35.5479185520362,0.008625318528543912,0.04541153261628554,2.7875480477000685
226,-0.9185405224757476,0.0014299951164908607,-0.928195134784806,0.0017044570103443273,0.02754545095487366,0.11987560079163133,0,2.0356939785513888e-05,0.03637380781756321,80,0,34.909393310546875,0.04747567071395907,35.509276018099534,0.00795134730026431,0.04747569318975305,2.3787966921518007
227,-0.9087052363139616,0.007949876097306784,-0.9237499427856558,0.010454708859568132,0.06294483595998983,0.12666101215719536,0,-7.574675269028425e-06,0.03757999548350498,80,0,34.92633056640625,0.0667411602790439,35.56837104072399,0.018323941892447317,0.06674119187544994,4.4876978555165286
228,-0.9033057354830007,0.00042470315521314286,-0.9341149981717479,0.0005955525672692196,0.08250619721188589,0.08821034775233247,0,2.4144277420028103e-05,0.03628274195302258,80,0,34.97723388671875,0.03853097913016968,35.26149321266961,0.004994143368484378,0.03853099737139378,2.7157584944978304
229,-0.950407029944162,0.004751673810603293,-1.0314975679530998,0.004044241374272806,0.014690768425484741,0.07463952502120441,0,3.313920430199936e-06,0.03568464034640808,80,0,34.997314453125,0.054356202701489366,35.140135746606326,0.007568270825274725,0.054356228434644785,2.2441284323973845
230,-1.016940436970788,0.040895545681018455,-1.2730861137613014,0.05529774891343617,0.01672470665017901,0.06787330316742082,0,9.941761290599808e-06,0.0404418056040832,80,0,34.98651123046875,0.05160398990647725,35.121131221719466,0.011315921512305106,0.0516040143366881,2.9851472504596734
231,-0.8670709337275754,0.00016306126203132648,-0.8712318301330799,0.00019353578857808027,0.048704601041476094,0.1289228159457167,0,2.887844946317087e-05,0.04266280085594009,80,0,34.97723388671875,0.04334735152144089,35.19561085972853,0.0031431833484716074,0.043347372042818,2.074553174013136
232,-0.8786031403647521,0.005248824927616346,-0.91028421677296,0.005752019992673684,0.06975761443899961,0.12666101215719536,0,2.2250608602771e-05,0.041428270411972896,80,0,35.001922607421875,0.05022788350897119,35.437782805429805,0.01048617271855313,0.05022790728770975,2.637937653892509
233,-0.8820469189072797,0.0013309489276036905,-0.9000705002417311,0.00281902914779238,0.055806734335774336,0.12213740458015268,0,2.177719139845672e-05,0.032993863229797644,80,0,34.952545166015625,0.0344026599376515,35.4183257918552,0.004182796315363946,0.034402676224458736,2.61555765161552
234,0.8218794390900186,0.10603879256804324,0.6736382101271717,0.12382493206276635,0.02733331319164516,0.10404297427198188,0,1.7516436559628233e-05,0.02752835115598937,80,0,34.860076904296875,0.03027434074513332,34.200633484162786,0.00820398909853964,0.03027435507752368,7.355914131238043
235,1.0565450423279803,0.13491396443775974,0.9331853352027236,0.17779042851220606,0.04628806674678259,0.0995193666949392,0,1.7043019355313955e-05,0.02622346645451063,80,0,35.057525634765625,0.02821018114887423,34.15063348416286,0.00552978893769391,0.028210194504056162,5.872726799463755
236,1.3580904038767343,0.13334719601731915,1.0736670568811713,0.18382211745706886,0.05852314532672093,0.07011591744416171,0,1.656960215099968e-05,0.02614952210591558,80,0,35.461883544921875,0.02821018114887423,34.004027149321324,0.006476317595466117,0.028210194504056162,6.0095098959301785
237,1.803388408235192,0.10799243012297174,1.5818353020250189,0.13513888180966793,0.02715226228414104,0.06559230986711903,0,1.088859569922836e-05,0.0259705057196754,80,0,35.405975341796875,0.04265929832268786,33.85366515837106,0.009240863248060194,0.042659318518328826,7.0317376026966905
238,2.154831076909309,0.11728623060551666,2.0648146559147778,0.1557296662470422,0.030889172667849032,0.11312217194570134,0,1.514935053805685e-05,0.0259868508748492,80,0,35.250885009765625,0.029586287546380288,33.85140271493219,0.008297249626066608,0.029586301553034506,7.3744919059465905
239,1.9970285636058736,0.053466059514947865,1.8946862618296016,0.06780287813655103,0.06053764290009224,0.20808594854396376,0,4.7341720431427655e-06,0.027331931220787996,80,0,35.03280639648437,0.03784292593141665,33.71334841628953,0.009430511520945402,0.037842943846904606,4.309905930194304
240,1.8731586426484628,0.10262726000112833,1.5525793325884223,0.11659847458740645,0.013236357616706391,0.14475544246536612,0,1.514935053805685e-05,0.02927923213132552,80,0,34.693878173828125,0.03646681953391059,33.6551583710407,0.013949679030311043,0.036466836797926255,4.906220954932035
241,1.9644455077643423,0.19492708769202474,1.5498388902433131,0.2697906451283622,0.04747617748508117,0.11309018942606727,0,7.101258064714148e-06,0.02973720028867333,80,0,34.62631225585937,0.0550442559002424,33.73633484162903,0.008734884627192858,0.05504428195913397,4.2474701060322655
242,2.364723089320324,0.18908659708756392,2.259516973722015,0.2202255328772172,0.028069474803366447,0.1085665818490246,0,1.7043019355313955e-05,0.029045340744193075,80,0,34.773834228515625,0.031650447142639385,33.774977375565705,0.007939295180955075,0.031650462126502035,5.306679416728823
243,2.494707667052563,0.1717020129360923,2.3689599939388333,0.2274066927472413,0.029051225506563205,0.08142493638676844,0,1.4675933333742575e-05,0.028012205412206097,80,0,35.0142822265625,0.03371460673889847,33.7221621621622,0.00951636652808808,0.03371462269996956,5.9266132179928
244,2.6868550210040625,0.15117578398256035,2.3473706747355747,0.21993039660173955,0.012689544871541692,0.1334464235227594,0,1.656960215099968e-05,0.02665194302228669,80,0,34.9417724609375,0.028898234347627262,33.64656108597281,0.006229723075984233,0.02889824802854533,6.965809680664451
245,-0.0548943540479651,0.01040612171501576,-0.151033916144709,0.013808196476565721,0.01905982043947905,0.13797003109980208,0,2.8405032258856597e-05,0.04335863108207672,80,0,35.102325439453125,0.045411511117699976,34.45457013574658,0.005571650314997844,0.04541153261628554,2.3444328760049657
246,-0.16817282692625338,0.02210762639237517,-0.2106404781459648,0.02867249104173442,0.01641979139191644,0.12666101215719536,0,2.2250608602771e-05,0.04336408584697661,80,0,35.0946044921875,0.05366814950273634,34.44203619909498,0.004039335476543864,0.05366817491015562,2.534566844405667
247,-0.2346746569774101,0.006051234499224122,-0.3056823640322636,0.008044530533951433,0.02037264678444464,0.1402318348883234,0,2.793161505454232e-05,0.04333568301043944,80,0,35.1085205078125,0.045411511117699976,34.462669683257865,0.006051186021994378,0.04541153261628554,2.4929619849996394
248,-0.3485412250539135,0.0031782686841485925,-0.40404271621600896,0.004148548495870028,0.09890767223213526,0.13797003109980208,0,2.9825283871799426e-05,0.043347351521441466,80,0,35.102325439453125,0.04334735152144089,34.676832579185536,0.00247738550563731,0.043347372042818,1.894568587795361
249,-0.4308451497040773,0.006307821336153023,-0.4590520157199498,0.008169525589575838,0.05116276606754589,0.15158371040723986,0,2.745819785022804e-05,0.043359415802641306,80,0,35.134796142578125,0.0481637239127121,34.963981900452396,0.0054833973482773645,0.04816374671424223,2.284428946991844
250,-0.4902211475143297,0.0026995908867620834,-0.5173410053267147,0.003204301184952702,0.03146160061115369,0.1334464235227594,0,2.9825283871799426e-05,0.04336290953611078,80,0,35.120880126953125,0.04403540472019392,34.92411764705881,0.0029855181546674004,0.044035425567307176,2.0057215296663684
251,-0.07588137883764008,0.02749516417018974,-0.14562232376634834,0.04166159339522058,0.09622680224001627,0.12213740458015268,0,-8.521509677656977e-06,0.04093897085062245,80,0,35.097686767578125,0.057796468695254524,33.95271493212675,0.007770863347844395,0.057796496057090675,7.300087873735586
252,-0.2319159988149129,0.0009926727146727862,-0.30704509409405034,0.0012747502513984696,0.021985549492305245,0.14701724625388746,0,2.8405032258856597e-05,0.04128397026590495,80,0,35.062164306640625,0.04197124512393483,33.74058823529409,0.0022461861542730204,0.04197126499383968,3.7091476531936647
253,-0.3781278888037041,8.446049779575957e-05,-0.4405601216363752,0.0001369228868339412,0.11314470363841934,0.13797003109980208,0,2.793161505454232e-05,0.04128396982591585,80,0,35.153350830078125,0.04197124512393483,33.95099547511305,0.0022643595882810338,0.04197126499383968,2.884880634371501
254,-0.4858035065572969,8.388919093464247e-05,-0.5271954846518685,0.00010716025267214472,0.148917210072802,0.1334464235227594,0,2.8405032258856597e-05,0.041283581095543656,80,0,35.054443359375,0.04197124512393483,34.44416289592754,0.002619740162863097,0.04197126499383968,2.6961128311335614
255,-0.5575893324896328,9.835189692486607e-06,-0.5837432351006813,1.3398901901219651e-05,0.06292652011615116,0.12895927601809956,0,2.745819785022804e-05,0.04128591611771136,80,0,35.0946044921875,0.04197124512393483,34.79638009049772,0.0036550574478286506,0.04197126499383968,3.076812446345932
256,-0.6073186959837095,3.776779699233539e-05,-0.6264573453096536,5.0368492014306565e-05,0.1023541013972988,0.1289228159457167,0,2.698478064591377e-05,0.04128669247848296,80,0,35.114715576171875,0.04472345791894695,34.993574660633385,0.002642055577678182,0.04472347909179635,1.6660637516673036
257,-0.6413332884528836,0.0024522681491862515,-0.6525359806228563,0.002265553461053597,0.029105611606942618,0.1289228159457167,0,2.793161505454232e-05,0.04069865804253167,80,0,35.14096069335937,0.0412831919251818,35.206515837103936,0.002703337382855516,0.04128321146935048,1.9064326219027672
258,-0.5909413589035486,0.007086403791884925,-0.6414165034810524,0.010482182088042516,1.7065423498509291,0.10630477806050324,0,-7.574675269028425e-06,0.04110427475648448,80,0,35.14096069335937,0.06261284108652572,31.65253393665163,0.011113863164449818,0.0626128707285149,3.4230390713183567
259,-0.634564271039884,0.0004171277085856624,-0.6680320793115165,0.0005642756906862065,0.1064284174763412,0.13570822731128074,0,2.935186666748515e-05,0.0432543398050942,80,0,34.93096923828125,0.04334735152144089,30.767737556561023,0.002915287978282389,0.043347372042818,3.7772108968734575
260,-0.6921909095867719,0.003932134154976067,-0.7075653676425786,0.0050686199038740215,0.2693689475425305,0.14249363867684478,0,-9.941761290599808e-06,0.03980401368049067,80,0,34.98956298828125,0.05642036229774846,30.117027027027067,0.004032310392339847,0.056420389008112325,3.7712484538102995
261,-0.6951587201115228,8.124841005180714e-05,-0.7105124601215957,0.00014871016334219841,0.15566636817709206,0.1402318348883234,0,2.8405032258856597e-05,0.041508132394005005,80,0,35.01580810546875,0.04197124512393483,30.0318099547512,0.002683851486815837,0.04197126499383968,2.8966249396956973
262,-0.7248155301336625,9.466607465433344e-07,-0.7386901501459776,1.5401904103038625e-06,0.03065937268692665,0.12669683257918554,0,2.8405032258856597e-05,0.041515915801230506,80,0,35.034332275390625,0.04197124512393483,29.66891402714929,0.0021465151426878822,0.04197126499383968,2.8122632692440037
263,-0.7488605999355302,1.8290976459794728e-05,-0.7593759921109384,2.3089913393633544e-05,0.0990324809355817,0.13118461973423806,0,2.8405032258856597e-05,0.04152434115255696,80,0,35.02197265625,0.04197124512393483,29.88438914027143,0.0025721233277805,0.04197126499383968,3.0915850678721024
264,-0.7693984103659065,7.488523873987912e-07,-0.779239947990413,1.6667082129518213e-06,0.12824611890178153,0.12439920836867402,0,2.8405032258856597e-05,0.04153109344532063,80,0,34.98651123046875,0.04197124512393483,30.274253393665198,0.002189579380287975,0.04197126499383968,2.7657644487894126
265,1.931118395731796,0.11288343713812889,1.8125447302156794,0.14995268478288581,0.04712285994009338,0.0911774772277507,0,6.223982751769153e-06,0.014080393548519192,80,0,32.025802370571235,0.022126040390267904,32.42451012950702,0.014270276615259444,0.022126050865113607,2.874586382837555
266,1.9278376471303422,0.15791300878416237,1.5509378624921457,0.20835751756653353,0.03374532417684669,0.1257885898885162,0,1.032870428339719e-05,0.029553545888254203,80,0,34.653407541752564,0.04759433196460955,33.70378145162834,0.010826121592138279,0.04759435449657978,4.511642385784011
267,1.2950897752353296,0.04812892672051858,1.0402721480302164,0.06411658032471626,0.036532876350226604,0.06702183652146101,0,-3.6166547192425064e-05,-0.02475380893860881,80,0,33.393996737687594,-0.015692510260613312,32.31673809102234,0.027285092481279933,0.052563616272450917,3.3114221063286013
268,2.3243245799360674,0.17916466111136264,2.1057611593147425,0.24102544438621826,0.034971505019412104,0.09159957071180272,0,1.2242049388536259e-05,0.028566478326394702,80,0,34.88962026425007,0.040568219442659585,33.72671610748523,0.009265261868877763,0.04056823864834807,5.387073327931121
269,0.6210254006101443,0.06655142442735373,0.4664711931336365,0.08730630110399001,0.021340824251349415,0.05140248903828211,0,-1.972798161223055e-05,-0.024292536322629975,80,0,32.57684912723705,-0.021242779329646334,32.11819754389721,0.014857442709167274,0.028672188411517602,3.415675198957322
270,1.9433044689047716,0.11995814812775542,1.8541198919811706,0.15912040898411955,0.014601107920037153,0.1708381124722248,0,-1.4353065057570208e-05,0.002250352836860897,80,0,34.2003834974892,0.009888383971834365,32.541700405300254,0.19132897173824912,0.05391590406532855,4.832418640719546
271,2.3185024495561217,0.22664529404756417,2.0810970562468856,0.2902383201503095,0.02275603665037041,0.12439704601799369,0,-3.2521039391233225e-05,-0.0022924488588256,80,0,33.96582976902844,0.028066480718206124,32.668445790895184,0.01741525588401045,0.06772730036006733,2.212661022364016
272,2.541831353513601,0.1494734025517374,2.3570898403454033,0.22210418244009722,0.017193111250275683,0.079092131276364,0,-2.9597185598161736e-05,-0.016871923140553618,80,0,33.84118284020762,0.011457793548749203,32.49181844345341,0.017097780279251032,0.043015859331247595,1.51899101984173
273,-0.46201536621794087,0.002658939758808861,-0.4839393349742845,0.003305405144058306,0.0219872765555321,0.13131951902509253,0,3.559575949608963e-06,0.006813091869812514,80,0,34.241260603620134,0.013302140456416332,33.91342464774039,0.005017047818550526,0.041123851784982214,1.6887328062581886
274,-0.47597562442907054,0.03628006357865775,-0.6042465236112649,0.04819738326397648,0.023121328574951305,0.1362447005413413,0,-9.851479236333014e-06,0.02812627044906911,80,0,33.08642565830052,0.06485701006948356,34.33438500989128,0.026742023660943935,0.06485704077390068,2.8853380889915625
275,-0.48912513791475276,0.0026980112805812732,-0.5160430958320802,0.003208229844420439,0.031093450904348955,0.13336377707087316,0,2.8804660910857357e-05,0.04194267052184251,80,0,35.086700203645286,0.0428411831418061,34.88484452011231,0.003064458567274453,0.043922288732635865,1.9934041015418908
276,-0.4628668217162376,0.001953794603176082,-0.47315619172951984,0.002586748537936461,0.010936558196824892,0.12809581750648458,0,-2.1639111218952787e-05,-0.023113628160698077,80,0,33.49108761746827,-0.0010214495648609295,32.85868871763376,0.007450031798693736,0.0398301171765048,1.6085862050704192
277,-0.6611501050432429,0.026177104617209297,-0.7196600641495396,0.03332576676107601,0.029888211405227752,0.13172313304372177,0,5.475175709459231e-06,0.03157287589870685,80,0,33.263520019325625,0.046584473283133095,33.516784215511585,0.005614909138637877,0.048276452661441975,2.822350539865776
278,-0.18614014240728718,0.017769546396539916,-0.23631868198363262,0.023099274877780195,0.017487765007587256,0.1303275466444387,0,2.3785490200619425e-05,0.043356412032222534,80,0,35.09836429011759,0.051437389438499855,34.4476109076277,0.004582892750426293,0.0514374137898392,2.5233261366850357
279,-0.6167149639428674,0.004808496255846896,-0.6479003137327417,0.006939427844244273,0.016822636343431396,0.1295449729067661,0,1.2273576795369228e-05,0.026079483553804968,80,0,33.8455981192838,0.03178844940247657,32.81818117613666,0.005787637933319075,0.03178846445167185,2.050682687290068
280,-0.24423259456735658,0.01405744013668447,-0.3303488201879249,0.01824853985725774,0.016821432941717087,0.1463369470119634,0,1.073306870333641e-05,0.033698956924075096,80,0,34.85979383769308,0.04587428602861411,33.73777443466933,0.006626311717110227,0.045874307746285224,2.3269844665283452
281,-0.23590525199591317,0.008432892664273361,-0.2993369213053482,0.011093317582093037,0.03451658521309566,0.14452467693188265,0,2.7949155190649404e-05,0.04335900890538678,80,0,35.117959270256435,0.04673663268979174,34.69983914972413,0.0055291587205199945,0.0467366548157125,2.3155424861013754
282,-0.5027195344729734,0.008464613669474317,-0.5317501619724843,0.011143434210658146,0.011377662315004375,0.13418980136128908,0,-2.7378742575211324e-05,-0.026667887537111606,80,0,33.643354176423685,-0.0018428370898928266,32.56278424625553,0.009350546133292921,0.03979162597658872,1.8659164605807963
283,-0.42230483170434874,0.00640092072282359,-0.4520548965478685,0.008297616932983325,0.050433496791992945,0.15127445411153517,0,2.747970669403474e-05,0.04335939797647033,80,0,35.134058519108336,0.04810120303832133,34.952409805078055,0.005485402154249106,0.04810122581025301,2.285792031312788
284,-0.19968757244250418,0.014498616173669971,-0.25568015366748315,0.018897046885957457,0.018293021522008162,0.13309212878193571,0,2.494279726082791e-05,0.04335062594422326,80,0,35.101199193275946,0.04975538714230257,34.45181426087173,0.00499273717853959,0.049755410697353286,2.5148505966661427
285,-0.6534350175792542,0.053590165830947334,-0.8626766134106729,0.07141460902787886,0.023325001260318057,0.11593381761832239,0,-6.706766321033082e-06,0.005153636933674112,80,0,33.99874333896648,0.01894264408691535,31.801716910516582,0.010949597245342904,0.03386047405161088,2.119144427480236
286,-0.5085028785409597,0.0015178652175389293,-0.5178143661897577,0.00202592450410742,0.016525692962005872,0.1076343680197423,0,-2.761705073140305e-05,-0.022807742629576758,80,0,33.44749570658056,0.015469073959390511,30.745719397792417,0.0226152193092155,0.05022790728770975,2.5484204903318557
287,-0.37603757190260645,0.00010563402106172628,-0.43851773548940104,0.00016429768853162976,0.11291362397628289,0.13793498340491137,0,2.787415114414479e-05,0.04120085596036704,80,0,35.15081199482859,0.041891282356936045,33.94770812334506,0.0022689950270229384,0.04189130218898515,2.8867975506637595
288,-0.49348922830374786,0.0001904201770430334,-0.4991759313950553,0.0002528911970880784,0.014302558029697094,0.11649983749402001,0,-2.6959735462164935e-05,-0.03680424165543189,80,0,33.60092170920926,-0.03360121946271284,32.83798409697909,0.006863427639641633,0.04389659068896798,2.0281641170390494
289,-0.26182018143498414,0.05130914314925564,-0.452719030531002,0.06633552372973564,0.01387208667988413,0.0816717567099931,0,-3.077507683155867e-05,-0.005287425285944704,80,0,33.94659028325796,0.027806848763987216,31.893459126956465,0.019030757251615578,0.05627802853378346,2.5006291381975663
290,-0.45076429485482317,0.0012479631055060947,-0.4580093842931147,0.0008893933015435489,0.010337430554884442,0.11059274965133045,0,-3.5162842011103805e-05,-0.04418627225976271,80,0,33.68982914766384,-0.03639399621537334,32.70924946646992,0.006692883565854445,0.05110485456868806,3.7696104928318848
291,-0.6148292496126783,0.0003915613937411926,-0.6433283463860952,0.0005031466577795342,0.013748757490817883,0.13904214180271174,0,2.651136344159949e-05,0.03986907290483588,80,0,34.078426814979125,0.04095704993077096,31.299000817486018,0.0037313803277232147,0.04095706932053845,2.880926435607743
292,-0.4177172772437163,0.0008044940675692805,-0.47214285109968734,0.0010440964061522227,0.021280353411164413,0.137623572929914,0,2.7913485800909376e-05,0.04089412506504218,80,0,34.80052052582688,0.041733111183692,32.77427192515859,0.0028071281438612006,0.04173313094086017,3.9459830077123113
293,-0.3410916567894776,0.02014552692726257,-0.3990482992441561,0.031733441415673844,0.07287456397178076,0.13797003109980208,1,-1.372909892511402e-05,0.017039435098530915,66,0,33.730712890625,0.05986062829151361,31.44447963800901,0.016245418074994827,0.05986065663055819,2.591006874804852
294,-0.4924262017763438,0.003406050354987849,-0.6190704647574478,0.005229269002572213,0.049309558990625765,0.13797003109980208,1,2.1303774194142445e-05,0.03939522684505307,66,0,33.71405029296875,0.05298009630398332,31.64710407239816,0.01068541720529858,0.05298012138566645,2.6089369296095275
295,-0.6737617808666924,0.009149340810036002,-0.7534515650165358,0.012218339219084252,0.08600670921750958,0.08597285067873305,1,-1.372909892511402e-05,0.032789548790122774,66,0,33.730712890625,0.045411511117699976,31.89271493212665,0.009412195499085995,0.04541153261628554,2.2153387838044734
296,-0.8185240995903601,0.00041689118949681024,-0.8940223005970753,0.0005880667854849332,0.05051476383035797,0.1402318348883234,1,2.0356939785513888e-05,0.03925405766143798,66,0,33.72616577148437,0.045411511117699976,32.10945701357467,0.006812652700868425,0.04541153261628554,2.1188656002397463
297,-0.9314688106673492,0.00044353635750931975,-0.962896490512664,0.0005771201373278956,0.06849714904282146,0.13118461973423806,1,2.461769462434237e-05,0.0370257412109093,66,0,33.707977294921875,0.03853097913016968,32.310180180180204,0.005542499758865585,0.03853099737139378,2.2179110643485984
298,-0.9914053910816116,1.2995150746588904e-07,-1.0195242260792714,1.7466354098879043e-07,0.1038010233265726,0.13118461973423806,1,1.9883522581199616e-05,0.034179276150273614,66,0,33.597381591796875,0.04059513872642877,32.609909502262504,0.004308934196868465,0.040595157944861314,1.7155279744920229
299,-1.0409974168475598,0.0002864113171550441,-1.0605894692435962,0.00037200647715732296,0.08909404594212661,0.1402318348883234,1,1.941010537688534e-05,0.03316735357290401,66,0,33.7625732421875,0.04472345791894695,32.94438914027142,0.00840994895985404,0.04472347909179635,1.9646290867113605
300,-1.0817360001335652,1.3272343933516492e-07,-1.0989804459052273,4.930284516950685e-07,0.06918606784450307,0.1334464235227594,1,2.177719139845672e-05,0.034885231185647,66,0,33.8597412109375,0.037154872732663616,33.23805429864261,0.002536902706000257,0.03715489032241543,2.0988083826949957
301,-1.0924065149329234,0.001867931729191064,-1.1007915624322149,0.002428286333917175,0.08124935563811833,0.13797003109980208,1,-1.5622767742371126e-05,0.028996638790410936,66,0,33.915924072265625,0.05298009630398332,33.49334841628953,0.010732633060039331,0.05298012138566645,2.1909067626918532
302,-1.0969666698229366,0.0009881199051151542,-1.1076931536413634,0.0012845881471428295,0.02638688083481688,0.13574660633484165,1,1.4675933333742575e-05,0.04207087273642382,66,0,33.8870849609375,0.0481637239127121,33.663936651583775,0.0070572629059848044,0.04816374671424223,2.015143917019412
303,-1.1222256375670654,0.0032074470561254307,-1.1336018035879758,0.004169618401170322,0.06177330754086879,0.13570822731128074,1,-1.514935053805685e-05,0.0231490206003548,66,0,33.978302001953125,0.05710841549650149,33.79769230769233,0.006336817648860993,0.0571084425326015,2.2468879795388856
304,-1.1430617689910372,6.095894956953876e-05,-1.15089493094483,7.930859678777251e-05,0.0214356456980533,0.1402318348883234,1,1.9883522581199616e-05,0.03563252099726552,66,0,34.00567626953125,0.05160398990647725,33.888280542986415,0.01633591991466435,0.0516040143366881,1.881045036934288
305,-1.1525190155424512,0.002943047931820609,-1.1617778305228343,0.003517198945469982,0.02515796412314424,0.1334464235227594,1,-9.468344086285533e-06,0.04041806621204347,66,0,34.04833984375,0.07224558586906815,33.85180995475116,0.04575749571201422,0.07224562007136334,4.5330154829344265
306,-1.1538940156546682,0.0003606886728887802,-1.159966444015338,0.0007239076539585765,0.033797845845806716,0.14475544246536612,1,-8.994926881971256e-06,0.027018826175567025,66,0,34.042236328125,0.059172575092760575,33.97352941176463,0.02846514624424121,0.05917260310606901,2.9916635640921068
307,-1.1697895185253386,1.2089628742154409e-07,-1.1775349542934692,5.390845827609153e-05,0.01492526923300396,0.1334464235227594,1,2.461769462434237e-05,0.039306595660211774,66,0,34.09555053710937,0.04472345791894695,34.03615384615382,0.008417595703807216,0.04472347909179635,1.924768655043981
308,-1.181528295554653,1.292836867185751e-07,-1.190105286625668,1.6873262655708902e-07,0.019943820689682118,0.14932126696832582,1,1.3255681720799745e-05,0.035868275518253306,66,0,34.09405517578125,0.05710841549650149,34.01714932126693,0.0206134512657502,0.0571084425326015,3.828969374384259
309,-1.2004316303479745,1.3359093599456374e-07,-1.2056068829149624,1.722533015662369e-07,0.01676298071863254,0.13797003109980208,1,1.8463270968256787e-05,0.029182168115342886,66,0,33.92205810546875,0.031650447142639385,34.010950226244304,0.007358598296189481,0.031650462126502035,2.1776126546226373
310,-1.2078965899053895,1.2412430650260254e-07,-1.2091271790569131,1.6110754767557626e-07,0.02128236662146573,0.1583262651964942,1,1.4675933333742575e-05,0.032615200468266166,66,0,33.79901123046875,0.049539830310218164,33.99004524886876,0.01278203819020407,0.04953985376322058,3.9306840178219984
311,-1.2104876087706489,1.1531761447479708e-07,-1.2132031749350751,1.492565255793403e-07,0.014529326508878747,0.14701724625388746,1,2.272402580708528e-05,0.03589078404077608,66,0,34.01181030273437,0.03921903232892271,33.953891402714895,0.008615240328258118,0.03921905089588296,1.9665560169013525
312,-1.2164039212069109,1.1738593168056714e-07,-1.2189482056516878,1.5107267509210901e-07,0.017625233051333906,0.14701724625388746,1,2.272402580708528e-05,0.03645164188982145,66,0,34.0452880859375,0.04403540472019392,33.953891402714895,0.007318861314703878,0.044035425567307176,1.7397897383105008
313,-1.2166738691865833,0.00013060493846458408,-1.2193717613969122,0.00016978830689824717,0.04935712092958965,0.11761379700310998,1,-4.734172043142766e-07,0.03403160128778675,66,0,34.01788330078125,0.05298009630398332,34.0502714932127,0.01514052055382364,0.05298012138566645,2.2494319296541496
314,1.6508213926929336,0.18917322395227906,0.7206595190303966,0.2818496453989071,0.0263863376721572,0.07011591744416171,1,-1.6096184946685408e-05,0.03742651364484079,66,0,33.98590087890625,0.05366814950273634,33.45773755656104,0.012190906827148221,0.05366817491015562,3.673990925726924
315,1.7146542646835643,0.2352498847607831,1.31530624648819,0.3038040517210649,0.04158526134607031,0.09725756290641786,1,1.1835430107856916e-05,0.03646059632804247,66,0,34.191650390625,0.06330089428527877,33.34683257918559,0.015468772616781874,0.06330092425300407,4.70703843802239
316,1.6781421635472469,0.3847827093042133,1.1398547546516828,0.5112827007699224,0.038508143177368816,0.06334841628959277,1,2.3670860215713828e-06,0.03645825778596228,66,0,34.465301513671875,0.07224558586906815,33.23479638009048,0.013220331320330585,0.07224562007136334,4.24916740751106
317,2.076917395216137,0.15323981908959156,1.937013192481916,0.2056490308169046,0.03329923250410792,0.10404297427198188,1,6.1544236560855945e-06,0.04152019667520492,66,0,34.427032470703125,0.08600664984412874,33.126108597285054,0.0114806926551283,0.08600669056114682,3.674194386917266
318,1.951367266732916,0.18347790872257447,1.5457274410114992,0.21927136517919346,0.034627189974480416,0.06559230986711903,1,1.7989853763942512e-05,0.04291289396179887,66,0,34.289337158203125,0.06742921347779694,33.03414414414416,0.008524181163832115,0.06742924539993912,4.138321156193692
319,1.9165715465159363,0.2203905594981783,1.4370184931740215,0.3027113877959846,0.033884726489938934,0.11987560079163133,1,1.656960215099968e-05,0.041300315421077975,66,0,34.11993408203125,0.06330089428527877,32.95289592760181,0.011888006258632865,0.06330092425300407,3.4884913255560335
320,2.086514454166983,0.04638597158211479,1.9950137201816007,0.06122669765853549,0.02585100782081841,0.0542832909245123,1,2.272402580708528e-05,0.0418043854166057,66,0,33.98590087890625,0.049539830310218164,32.8433031674209,0.007529679255168844,0.04953985376322058,3.0284982915488214
321,1.9628195179000958,0.05428481737182698,1.9162494080030288,0.06753915117253156,0.022828401846773986,0.15154085383093016,1,2.603794623728521e-05,0.04236897723316893,66,0,33.856689453125,0.04885177711146513,32.767285067873274,0.0073080169995902045,0.0488518002387314,3.812053518967953
322,1.9160146429103893,0.15903487509417305,1.7569687623649235,0.194186339440864,0.033136448225159924,0.16284987277353688,1,7.574675269028425e-06,0.03728283740331892,66,0,33.82025146484375,0.054356202701489366,32.68959276018094,0.01706643144609387,0.054356228434644785,3.417744640280993
323,1.9678987401065589,0.12785947525412011,1.7344265574572917,0.1767546560730391,0.03604196667109125,0.05429864253393665,1,1.6096184946685408e-05,0.04134818337551642,66,0,33.82781982421875,0.06742921347779694,32.58542986425339,0.010941852251775444,0.06742924539993912,3.5982767234054656
324,1.805833793176768,0.11121562127148882,1.499275527607071,0.15225468062433015,0.033934479568502096,0.09273395532937516,1,1.7043019355313955e-05,0.04143457919572202,66,0,33.79443359375,0.05642036229774846,32.474615384615376,0.010356806916767105,0.056420389008112325,4.455039608447437
325,-0.4634820855894812,0.007242644193518165,-0.5344344494895076,0.009989201433512044,0.015755965388468213,0.1334464235227594,1,9.468344086285533e-06,0.016977167840725657,66,0,34.34747314453125,0.02132964916134393,32.4219457013575,0.006706039845439408,0.021329659259164413,2.233404014609909
326,-0.5301762593234209,0.011129915724728177,-0.6038060723774681,0.014630117029887332,0.015379823581675868,0.08142493638676844,1,-3.692654193651357e-05,0.00372614451331489,66,0,34.45458984375,0.0481637239127121,32.40393665158374,0.013672009498360949,0.05366817491015562,2.8722178339457844
327,-0.50898890282249,0.0037365005793280437,-0.5369960229152531,0.004898508180521163,0.017083230855981762,0.14253393665158373,1,3.7873376345142126e-06,0.0139992362361673,66,0,34.4071044921875,0.01720132996882575,32.38601809954751,0.010560371961880026,0.017201338112229368,2.4927885749359424
328,-0.5232331041672594,0.010207498879523493,-0.5370888311909237,0.013041821987226804,0.013095619883373105,0.08821034775233247,1,5.207589247457042e-06,0.013830336299369387,66,0,34.39947509765625,0.023393808757603017,32.33904977375571,0.01360048739209717,0.023393819832631932,2.6248829031180767
329,-0.6179101051754454,0.021263673671462043,-0.6842442972663372,0.027011991213890387,0.01240375658830081,0.16284987277353688,1,-2.4144277420028103e-05,0.014634646498745822,66,0,34.381134033203125,0.046787617515206034,32.323108108108144,0.008707789004501778,0.04678763966526387,2.292548326214543
330,-0.6259759982769392,0.0019083224538881075,-0.6575957226866816,0.00334317404048608,0.011638374975774112,0.12666101215719536,1,8.048092473342704e-06,0.02049254371421859,66,0,34.338287353515625,0.024769915155109082,32.34054298642536,0.006628123532771073,0.02476992688161029,2.0807761962266595
331,-0.5642553702786157,0.0007746427180259763,-0.604021214025502,0.0015619121568796813,0.02060369366461004,0.13570822731128074,1,2.698478064591377e-05,0.040002043095828436,66,0,34.315338134765625,0.04197124512393483,30.843484162895965,0.00459491933792154,0.04197126499383968,3.1232244624639467
332,-0.6350685356570964,0.0004122958548047648,-0.6609988409489953,0.0005355742905621462,0.013668454248785971,0.13797003109980208,1,2.651136344159949e-05,0.04000587892082556,66,0,34.39947509765625,0.0412831919251818,30.86022624434391,0.003594355924568389,0.04128321146935048,3.1517810859978512
333,-0.6889761569333754,9.324859095471139e-06,-0.7162822076105583,1.2534618584160107e-05,0.014177850517694638,0.13574660633484165,1,2.651136344159949e-05,0.03993510579368719,66,0,34.38876342773437,0.0412831919251818,30.879411764705893,0.003205832766054511,0.04128321146935048,2.342188788891513
334,-0.7315763863803496,0.00045390100861179334,-0.7483971963482117,0.0005637649718816612,0.016685976679088554,0.14249363867684478,1,2.745819785022804e-05,0.03997830370379026,66,0,34.271026611328125,0.0412831919251818,30.896334841628928,0.003509952808230622,0.04128321146935048,3.138754576426627
335,-0.7687616236971913,0.0004489580306401145,-0.7840709212350425,0.0006083096933472503,0.01994798853445828,0.11987560079163133,1,2.698478064591377e-05,0.04015756956385205,66,0,34.306182861328125,0.0412831919251818,30.948558558558503,0.003866946008401622,0.04128321146935048,4.393448778384784
336,-0.7616142870085751,0.004552715563987282,-0.7834222561687985,0.005920057589844697,0.026459409017327042,0.11987560079163133,1,-3.7873376345142126e-06,0.016334647574242096,66,0,34.245086669921875,0.05229204310523028,31.00511312217196,0.004220005308876959,0.052292067861177266,3.0219298472633342
337,-0.7917205928169467,0.00579058351974265,-0.8283034346840925,0.007415605238404491,0.0218180267070144,0.16284987277353688,1,7.101258064714148e-06,0.014480233203152528,66,0,34.168731689453125,0.03646681953391059,31.065746606334862,0.013176310988882604,0.036466836797926255,3.0858586556239205
338,0.695590882999505,0.16864978917877846,-0.8077078673420641,0.259196617245224,0.6811094386083894,0.05202148713599095,1,-4.734172043142766e-07,0.014004295450864564,66,0,34.26644897460937,0.06261284108652572,32.5650226244344,0.013919312963633058,0.0626128707285149,4.207490847874017
339,1.1155516393447609,0.004275926663906525,0.9589355838694846,0.007644944918978386,0.02054278709014772,0.1334464235227594,1,6.1544236560855945e-06,0.009454605514578216,66,0,34.2313232421875,0.010320797981295449,32.841945701357474,0.003235285366979415,0.01032080286733762,3.1956103398332703
340,0.8174524406513097,0.003739780535770208,0.6911166597926359,0.0058360830351860725,0.0201279663651162,0.13800904977375567,1,5.6810064517713185e-06,0.009383286580958326,66,0,34.18856811523437,0.010320797981295449,32.79054298642548,0.0028330167288071217,0.01032080286733762,2.552400218903953
341,0.5948625978949633,0.000846938430078839,0.5149235541801982,0.0011561064680136767,0.025874282828824625,0.12213740458015268,1,6.1544236560855945e-06,0.009005402160149681,66,0,34.16415405273437,0.00963274478254242,32.73339366515832,0.003091962861366555,0.009632749342848444,2.9965481093628754
342,0.4312640043049272,0.008283063336925474,0.3502724976139128,0.0107367235954873,0.023668316064216592,0.12439920836867402,1,5.6810064517713185e-06,0.009101438581583077,66,0,34.1702880859375,0.01100885118004848,32.67809954751121,0.00405924845739416,0.011008856391826794,3.627130054020276
343,0.0016936307976129256,0.1358274594688067,-0.4947316729965173,0.17559439303337654,0.015376628216792091,0.09725756290641786,1,-1.088859569922836e-05,0.011188258716601064,66,0,34.0772705078125,0.046787617515206034,32.629185520361965,0.0046455082708566795,0.04678763966526387,2.6205908792142933
344,0.07962176167671595,0.0035895069420407077,0.038627815324135034,0.005625527418154347,0.02733076623045983,0.1402318348883234,1,8.521509677656977e-06,0.013766898230561516,66,0,34.0133056640625,0.015825223571319692,32.5616742081448,0.0026472082589090004,0.015825231063251018,2.5833823139118013
345,1.0960847599010117,0.10083958803322554,0.9534728638249284,0.12756491784365354,0.03943285339166947,0.12205734360813025,1,1.5288366497010112e-05,0.025779480660388605,66,0,35.00099669274099,0.030523434863331436,33.55899313743048,0.014924506521711664,0.030523449313647213,6.1373250496950815
346,1.9423678401978033,0.10783255639533218,1.8365975035801012,0.147765442235508,0.041914334878302366,0.12813967169895474,1,1.375122706313224e-05,0.02477259349905331,66,0,35.250310454584366,0.03009428731931153,33.326046723918644,0.015115696044202966,0.030094301566461524,6.12504527740807
347,2.0777494186574748,0.04694568458185776,1.9894324731721227,0.061673998743544456,0.02563682566030872,0.061174971523333704,1,2.2958850538986307e-05,0.04184439244898637,66,0,33.97674494440006,0.04949107479199316,32.837916517312095,0.007513972245650908,0.04949109822191388,3.0840210930414464
348,2.044032378967319,0.05780339507229093,1.9463628196236082,0.07651527442480313,0.02518494152653309,0.05930810188640572,1,2.2957746046937885e-05,0.041520635713159455,66,0,34.08170654107914,0.04874723574440394,32.822989743848154,0.00781845202339736,0.04874725882217855,3.037922664532714
349,2.0184263558568682,0.1474913676907374,1.8760032137482119,0.19304141040494835,0.03187395776464693,0.09682862261344936,1,3.938413518376163e-06,0.03433738895069684,66,0,34.6409361411717,0.07063514653587623,32.91041447238898,0.016628527033371154,0.07063517997576191,3.520561530491581
350,1.6435452933222656,0.1462938239686569,1.3540176508418333,0.19309600419538092,0.03106048928559296,0.08527282185416878,1,2.0365479536053826e-05,0.040107209876828115,66,0,34.344569825113616,0.05017134789110367,32.56681937233189,0.010967719879326262,0.050171371643077306,4.489774260781703
351,0.5799392586876118,0.04896182916154289,0.3879136231542828,0.05247886693648622,0.02620065665109394,0.17888104050727957,1,-1.5812708085977067e-05,-0.00255741054287412,66,0,33.7052430002535,0.009453735878147742,32.77467783115451,0.03380126294420615,0.05172910894984059,4.3230562339510366
352,2.2816612794229143,0.1507721195616174,2.0615403789549456,0.18457942001830174,0.02732556357229348,0.0766147923218638,1,-1.4939569004367094e-05,0.004557368933119525,66,0,34.51542612495414,0.031976956686727384,32.6457449646802,0.022249181301732576,0.050147398889024905,3.7121201743888537
353,2.0595541195528613,0.27457937659450743,1.9378106313499586,0.35180222128510885,0.018675063644663363,0.11696477321917155,1,-1.736716343533096e-05,0.002769663748940221,66,0,34.04072998523818,0.021579835790974267,32.791092305087055,0.016080590517260455,0.049102978642033335,2.446301389046761
354,1.8724163869384784,0.08441750731982024,1.7982370429806718,0.10887049762569148,0.021660418909573247,0.14320789730726532,1,2.5928935759643248e-05,0.04144490298418589,66,0,34.15455289037216,0.04679214536799846,32.72794238990432,0.008167184227908277,0.04679216752019986,3.6580036996373133
355,1.9227067190960647,0.22835844839959163,1.6423152419645146,0.2887325651278615,0.02931925466321366,0.09600181066583183,1,7.9870427292288e-06,0.02862109268990915,66,0,35.23703403733881,0.04945901940886586,33.42595918585444,0.019569417311035876,0.049459042823611014,6.609666894300477
356,-0.5173784059486599,0.0098177456606801,-0.5823430712792342,0.012910904711648928,0.014713095968078144,0.08731880683931512,1,-3.563121620104724e-05,-0.0008882385747020563,66,0,34.29646920600604,0.04090228480119856,32.45139572661622,0.012880362381039814,0.0517855786936956,2.6682179377271216
357,-0.6108025891829845,0.0063708185845779836,-0.6368417470395136,0.0087196359183393,0.01687137378272232,0.12207906706285448,1,5.414620564688448e-07,0.02209316906810334,66,0,34.47701559449661,0.03140444956673865,32.4653695430256,0.00856297152771417,0.03946678005105589,3.1104787421544424
358,-0.5173139696933639,0.13304449672588317,-0.9781611509032642,0.1762091112692767,0.038283835836191694,0.10967146225250166,1,-2.782687712182579e-05,-0.006987981841029386,66,0,33.557839279478245,0.02207798239621015,30.673350996446473,0.01706386639344248,0.05420826635085385,2.5063504385230644
359,-0.4337911172216211,0.08770558874352002,-0.4921078344644024,0.11015813824788084,0.015367097519307475,0.111328169517706,1,-2.6019726952962456e-05,-0.012289759901999864,66,0,33.568467179985575,0.007928364819519352,31.1314613296883,0.014657149384205467,0.03781646436395024,2.6160660030980045
360,-0.5112986365110715,0.0036991975865909308,-0.539119705230774,0.0048539343412088865,0.017086665592575566,0.14253350139621426,1,4.037891457484095e-06,0.014283823200151053,66,0,34.40977077257184,0.01745400472333052,32.405123028363825,0.010486293813618602,0.017454012986354683,2.4891430989702115
361,-0.60207065176251,0.021293397135475664,-0.6675642798607333,0.02707047293407981,0.012545198712965758,0.1615753247217693,1,-2.2510279814542986e-05,0.01564647860194078,66,0,34.406261997112594,0.04702994536113637,32.39773537252617,0.008543369118175229,0.04702996762591635,2.3010720604686377
362,-0.5462774082838017,0.0021924749979055354,-0.5803718773164316,0.004100136768199595,0.011905793823827093,0.12958697589253237,1,-1.085739819943304e-05,-0.007311008715836179,66,0,34.08297510075072,0.013496980412337071,33.08428349633596,0.007021192769836917,0.04010914563833729,2.0652333833558374
363,-0.7391232264388232,0.10767297129651748,-1.1344195355876137,0.14215654412373363,0.03641670837418301,0.1113274251490621,1,-2.8506762237670603e-05,-0.015206917854153318,66,0,33.95343711056425,0.013009928434344856,31.10214806498986,0.015859597980791364,0.04190422395462099,2.5190187554395154
364,-0.5115874676968013,0.0023010813131248194,-0.5194224788576856,0.0031038199433304943,0.014419783668433179,0.1285415034269464,1,-1.7801102917918756e-05,-0.015289507721818203,66,0,33.72307075437432,-0.010902401259227194,30.731060707128737,0.015911685674551108,0.04215569019836044,3.114819811687561
365,-0.5098250960275176,0.0037687506562545667,-0.5376792711753237,0.0049401288776419056,0.017146608589536275,0.1429067060515981,1,4.0157213979219165e-06,0.01428423320870971,66,0,34.41494984871641,0.017463377978250184,32.36969249050522,0.010489666809461017,0.01746338624571181,2.515181620027192
366,-0.6380270138645778,0.024590075697797083,-0.7476001392185309,0.03321787258941949,0.016767316908164014,0.12195313868304357,1,1.5725868710927479e-06,0.013760715360316155,66,0,34.18927073471467,0.022212484618240703,32.10406689934037,0.008524700628202278,0.02875952040786583,2.09761496777259
367,-0.1749067363617513,0.02289627336344134,-0.21832926155906643,0.029737497290298332,0.016650856686729967,0.12508821664130645,1,1.8452133551053414e-05,0.03946141700016887,66,0,35.01921743599091,0.05068701878254657,34.36455688303002,0.005863428756616604,0.05458827741988031,2.527967406892901
368,-0.4722434955699548,0.002751793904666007,-0.5072902106245003,0.0036126029915523935,0.06390596305404111,0.14269570030393208,1,2.5095128045852146e-05,0.041642773250585394,66,0,35.126147071212046,0.047071144599793315,34.15225912327656,0.004006195303535232,0.04707116688407771,2.4917523750141473
369,-0.5132107878380607,0.006984280180492117,-0.5377104046408301,0.008674343454322862,0.013283473191368808,0.12605357337357445,1,-2.5194682102027113e-05,-0.0239176272346365,66,0,33.74500544394137,-0.008898767838331673,32.507812715007375,0.007579222271522917,0.03661736341794647,2.00007808842562
370,-0.7360777747254892,0.00040317506699494906,-0.750325967541825,0.0005461589573388853,0.01935753809174112,0.11939350846384199,1,2.0627668414647474e-05,0.031101421929968842,66,0,34.20664512816891,0.03248388307496721,31.143320377125605,0.004231171005386934,0.041943159945547315,4.134269540382964
371,-0.10123915746774592,0.11577624491452376,-0.5266048783375068,0.1496791280516741,0.03609897216855805,0.1036053374859259,1,-5.0844928910644405e-06,0.015666838911382656,66,0,34.21590287619383,0.04607618612100746,32.24552446391029,0.004355749899319939,0.04607620793426152,2.661364158467052
372,-0.028392484533614426,0.0032759069723948125,-0.06413655204575497,0.005041370577980473,0.02511050175453624,0.14245042489981063,1,9.218067897752085e-06,0.014736950810818734,66,0,34.19842068997184,0.016612615455406956,32.677058720282915,0.0031037535220083397,0.01661262332010306,2.9253714639615787
373,0.7305120355060718,0.0026098778341212578,0.6222981557851961,0.004008151204237389,0.022372395289909613,0.13180981243944576,1,5.865916432550913e-06,0.009235690337408528,66,0,34.179032332025635,0.010052054254626188,32.76822127990367,0.0029341573801357312,0.010052059013440485,2.7258780248214944
374,-0.75944823557405,0.0004359119995492149,-0.7744551672516463,0.0005905996027429903,0.01977973741613783,0.11973822673376629,1,2.5173297132958708e-05,0.03757698556079149,66,0,34.27781920248819,0.03877579511863082,31.004056685766674,0.0039707333182747995,0.041471266318870145,4.319594660436165
375,-0.6218066200058125,0.001930427400821246,-0.6593492919376327,0.0031995502965603486,0.12463426128183389,0.12864001238161057,1,2.8405032258856597e-05,0.04138937723626749,66,0,34.97033173279,0.04197124512393483,34.145616378727254,0.0030683859121365294,0.04197126499383968,3.0751647080277436
376,-0.7592696524968655,0.000448779202879399,-0.7741507718577271,0.0006072219038327794,0.019746970926033978,0.12009140995896478,1,2.505748778237264e-05,0.037457493668317916,66,0,34.27935914446642,0.03865717832209941,31.005919380483707,0.0038986554980349926,0.04152392949692634,4.318109173618157
377,-0.40304023775649184,0.0003333392728976313,-0.4210761470367289,0.0004999322444726752,0.01584334476999023,0.13757485426224908,1,-1.7059174827956488e-05,-0.020619567107662943,66,0,34.37784279864907,-0.015553540275137015,31.40047196277438,0.0058161463230220626,0.04036646787351757,2.1628513147539032
378,0.3935999079462331,0.19876913088651188,0.03705132940596534,0.2627481806696142,0.03626724354400585,0.11535199321458862,0,1.2308847312171187e-05,0.03677037241571325,74,0,34.40557861328125,0.05091593670772422,33.049276018099555,0.028447980245728918,0.05091596081219893,3.1241039995110333
379,0.13996929206792225,0.06644112046769612,-0.0648134691264457,0.09788242544333448,0.018044032509143642,0.09273395532937516,0,2.0356939785513888e-05,0.037250943473246825,74,0,34.44540405273437,0.049539830310218164,32.973393665158284,0.015824407360984026,0.04953985376322058,2.770745521707943
380,-0.10186890272726548,0.05346716650388312,-0.5159612507469069,0.0655321131077429,0.08461560239040898,0.15384615384615385,0,2.083035698982817e-05,0.03545964663890282,74,0,34.515869140625,0.04197124512393483,33.14597285067874,0.008757074211756411,0.04197126499383968,2.09629865771327
381,-0.5607840176662304,0.004132502167799871,-0.6796433436029694,0.009163509317219171,0.11722989037805502,0.13570822731128074,0,2.177719139845672e-05,0.03339198450939305,74,0,34.535797119140625,0.035778766335157565,33.59923076923081,0.009367424841064963,0.03577878327343708,2.1774821208593758
382,-0.4314068566793422,0.02611923578242282,-0.7036702795813572,0.032439108967047166,0.057797172019982676,0.1741588917161436,0,2.0356939785513888e-05,0.03971027664210901,74,0,34.560333251953125,0.046099564316453005,33.80918552036201,0.02164523839777796,0.0460995861407747,2.00550927772206
383,-0.30061641379000026,0.010479993397404498,-0.3341247785278009,0.015325817702195184,0.06121989676665233,0.1583262651964942,0,2.603794623728521e-05,0.0417490288476401,74,0,34.60174560546875,0.046787617515206034,34.001674208144806,0.018840570089570324,0.04678763966526387,1.9729640559801969
384,-0.4253827878392243,0.011328485079007413,-0.4703995647556902,0.014737023359582288,0.20774265697540395,0.1402318348883234,0,2.083035698982817e-05,0.039105458821837136,74,0,34.60943603515625,0.04747567071395907,34.064660633484195,0.015221089157171968,0.04747569318975305,1.7966459417632998
385,-0.4754990724325368,0.02152535888376928,-0.4916810969908376,0.027946999919296958,0.09454523476538836,0.14927905004240882,0,2.0356939785513888e-05,0.04004952187990653,74,0,34.6324462890625,0.06398894748403179,34.45452488687786,0.02175939648566222,0.06398897777749324,2.1250823499051283
386,-0.5022602468374413,0.011688706695367238,-0.5910158670431028,0.011224537478553764,0.04088324814280807,0.13348416289592765,0,2.461769462434237e-05,0.03872361845900674,74,0,34.644744873046875,0.04059513872642877,34.2429411764706,0.013723572316517468,0.040595157944861314,1.897949601444031
387,-0.6690672034719605,0.0618632075698352,-0.7847906371167443,0.0842324979752011,0.10164374240103537,0.15154085383093016,0,1.4202516129428297e-05,0.040680318856743364,74,0,34.666229248046875,0.05573230909899543,34.319009009009044,0.03001600475014416,0.05573233548362315,2.2748406884194994
388,-0.5301346527261226,0.0383431465535264,-0.5924820661070326,0.044256266811766684,0.09466880907393943,0.1289228159457167,0,2.603794623728521e-05,0.041042295471546066,74,0,34.62939453125,0.046787617515206034,33.90438914027153,0.02664968769287487,0.04678763966526387,2.4969655605915286
389,-0.5287519883431849,0.03707877989838313,-0.5878172601396316,0.051061066083040924,0.04044479463610735,0.14475544246536612,0,2.603794623728521e-05,0.04029253534110856,74,0,34.64779663085937,0.04403540472019392,33.78692307692316,0.019093415933400568,0.044035425567307176,2.4943771494966076
390,-0.5038865255094235,0.011432642988553194,-0.5604514936464592,0.017396321345478947,0.1214321829912918,0.13797003109980208,0,2.5091111828656657e-05,0.03985766089179149,74,0,34.666229248046875,0.0412831919251818,34.1627601809955,0.009519787672703412,0.04128321146935048,1.8927862084430669
391,-0.8115525215731544,0.04759795686635679,-1.1409423013144493,0.061630730991310674,0.1502899063712702,0.1289228159457167,0,2.083035698982817e-05,0.03489818270487049,74,0,34.755401611328125,0.05022788350897119,34.241855203619885,0.025972513003998138,0.05022790728770975,2.4947563974372216
392,-1.0273209303049666,0.02820887742599447,-1.1631536424711004,0.03650838417796032,0.020101501205878048,0.1402318348883234,0,1.9883522581199616e-05,0.038907306869533545,74,0,34.77081298828125,0.049539830310218164,33.984660633484125,0.016744232176179496,0.04953985376322058,2.0847231241503916
393,-0.9645843413814672,0.03058898465059898,-1.0574466869990922,0.03854275044527231,0.09352870030179963,0.14705882352941174,0,1.941010537688534e-05,0.0397700975605032,74,0,34.73236083984375,0.05022788350897119,34.219411764705924,0.01684712469229372,0.05022790728770975,1.8619422080682921
394,-0.8472903934478643,0.01835230015734532,-0.8709516686784888,0.024795452330555738,0.057227852736641674,0.1289228159457167,0,2.5091111828656657e-05,0.04101442722176732,74,0,34.687744140625,0.046099564316453005,34.22099547511307,0.0128364311290788,0.0460995861407747,2.035414191383512
395,-0.8247058646790908,0.019326937011395075,-0.8443886974723465,0.02392975732255557,0.013048631501208906,0.16511167656205822,0,2.556452903297093e-05,0.0390026536080478,74,0,34.66317749023437,0.04059513872642877,34.152398190045204,0.01792622128800481,0.040595157944861314,2.2216276484164337
396,-0.8630543195862597,0.030637833056149005,-0.9470191243027444,0.041988499346745416,0.06650047534003073,0.1583262651964942,0,2.272402580708528e-05,0.038184424353409435,74,0,34.693878173828125,0.04265929832268786,34.29633484162903,0.015393516414052602,0.042659318518328826,2.18758904011013
397,-0.9916986688437848,0.0026349615215777045,-1.0127348943957113,0.0035377289174831905,0.018014051466693038,0.1402318348883234,0,2.5091111828656657e-05,0.03803790028242042,74,0,34.7523193359375,0.03921903232892271,34.315972850678804,0.019851365917431352,0.03921905089588296,2.0733438110326885
398,-1.1332709552205185,0.020605673509556714,-1.312400293089811,0.02628039603808498,0.1079754064453731,0.16058806898501554,0,5.207589247457042e-06,0.035055707603398725,74,0,34.7523193359375,0.05022788350897119,34.21416289592753,0.024213773466631918,0.05022790728770975,1.884655320907616
399,0.17690281779818462,0.6488246777315775,-0.4939903279049408,0.8475729329026238,0.020890281018579683,0.18094430308170764,0,4.260754838828489e-06,0.0384539233986352,74,0,34.890869140625,0.0873827562416348,33.16950226244331,0.020274780714455088,0.08738279761012517,6.185196722248799
400,-0.24036427238629465,1.0981475453291114,-1.4842130516248735,1.3902264394102053,0.018804375914964547,0.2239185750636132,0,0.0,0.03881919135191966,74,0,34.958709716796875,0.0873827562416348,33.11289592760182,0.0223205682176302,0.08738279761012517,5.7578334773146125
401,0.5147855244479941,0.6358920645474974,-0.6827567858270954,0.7815612087973001,0.029740591357747762,0.1085972850678733,0,1.4202516129428296e-06,0.038933770454100285,74,0,35.093048095703125,0.0873827562416348,33.07452488687787,0.020710309488316755,0.08738279761012517,5.505087974585562
402,-0.4017408195320131,1.2963317721503271,-1.2065992843033275,1.775037157087305,0.01836044988169679,0.13797003109980208,0,2.3670860215713828e-06,0.038934548794822776,74,0,35.0899658203125,0.0873827562416348,33.00787330316737,0.02032763916181517,0.08738279761012517,5.703400786757674
403,-0.17000849839245913,1.262281499326845,-1.1404808993464437,1.5522354319630431,0.020822347519460785,0.13570822731128074,0,-5.6810064517713185e-06,0.038434908389586235,74,0,35.137908935546875,0.0873827562416348,32.973212669683235,0.02753878317747054,0.08738279761012517,5.896805138547464
404,-0.25637927119719794,1.22605242518073,-1.156184381528183,1.5903858931803252,0.021674160912105816,0.18999151823579305,0,0.0,0.03738915329015758,74,0,35.048248291015625,0.0873827562416348,32.9490950226244,0.01708892621811559,0.08738279761012517,5.341866136766642
405,-1.0216853933536492,1.9711548256413407,-1.972889534683117,2.632381650943108,0.03241512234799289,0.08142493638676844,0,2.4144277420028103e-05,0.038543814492272094,74,0,35.116241455078125,0.0412831919251818,32.86221719457015,0.018391369481697624,0.04128321146935048,4.803884054247981
406,1.2280269692187855,0.21967117491219326,0.2625331384590305,0.3481560796007941,0.03518244311814015,0.11309018942606727,0,2.461769462434237e-05,0.03786355196056452,74,0,35.1224365234375,0.03990708552767574,32.790452488687784,0.009072729299896928,0.03990710442037213,3.5751873375118115
407,1.4127176132566694,0.19618657765556216,1.1474131241191479,0.2511858132648217,0.026972728845822167,0.07466063348416291,0,2.5091111828656657e-05,0.0382192536707801,74,0,35.12704467773437,0.0412831919251818,32.69796380090497,0.011836639254364891,0.04128321146935048,4.5391783727390616
408,1.4427240552294749,0.2682200934948286,1.3154379192871706,0.3386159309464314,0.01792272096053806,0.07690132880972575,0,2.461769462434237e-05,0.038226819943383526,74,0,35.1595458984375,0.0412831919251818,32.626036036036055,0.01764050003398625,0.04128321146935048,5.521587406038291
